acc_x, acc_y, angular_z, stamp, 
-0.013286113739013672, 0.0053095221519470215, 8.932036643979697e-10, 1791402842384304650, 
-0.027458488941192627, 0.03569233417510986, 8.582494592503656e-10, 1791402842416709881, 
-0.011092662811279297, 0.015023529529571533, 1.30580350031574e-09, 1791402842503260910, 
0.020778238773345947, 0.007222294807434082, 1.0202807325257888e-09, 1791402842593275131, 
0.011449575424194336, 0.021476566791534424, 7.387802530410456e-10, 1791402842624301863, 
0.00032252073287963867, -0.005551815032958984, 4.2276029641075133e-10, 1791402842656326126, 
-0.012717843055725098, -0.007436096668243408, 1.93925227049468e-10, 1791402842683101736, 
0.006075620651245117, 0.0052651166915893555, -1.9801464087613984e-06, 1791402842793130647, 
-0.019178926944732666, 0.016059517860412598, -5.699998921502002e-10, 1791402842823217931, 
0.013146042823791504, -0.0035880208015441895, 1.9990741499288337e-06, 1791402842853026519, 
-0.00659710168838501, -0.010567665100097656, -1.9669309327450563e-06, 1791402842883336526, 
0.0005512833595275879, 0.011235237121582031, -3.51079309924625e-10, 1791402842913051395, 
0.014919579029083252, 0.023872196674346924, -2.9598164954802304e-10, 1791402842944602846, 
-0.013728141784667969, -0.019162356853485107, -3.0990474060143135e-10, 1791402842974582431, 
-0.02125716209411621, -0.0063893795013427734, -2.514929629105254e-10, 1791402843062188286, 
0.0021764039993286133, -0.03136777877807617, -1.9909809530177173e-10, 1791402843092408643, 
-0.005118906497955322, -0.0006500482559204102, -1.4442203146183465e-10, 1791402843122363522, 
0.003944277763366699, -0.007645249366760254, -1.948655678035805e-06, 1791402843152952428, 
0.02185434103012085, 0.0068285465240478516, -5.093124392443989e-11, 1791402843184900165, 
0.012601137161254883, 0.0015108585357666016, -5.5319088906678776e-11, 1791402843212240290, 
0.005214810371398926, -0.016149461269378662, -1.1671360042757757e-12, 1791402843241993344, 
-0.032653748989105225, 0.0002910494804382324, 8.832134851992768e-11, 1791402843272103128, 
0.024683892726898193, 0.009408831596374512, 1.552507987840024e-10, 1791402843301861441, 
0.012193441390991211, 0.005976438522338867, 2.0085725821838703e-10, 1791402843331846752, 
0.017384648323059082, -0.0065413713455200195, 2.46598969372208e-10, 1791402843361734249, 
-0.02221149206161499, -0.009915471076965332, 2.677614856829921e-10, 1791402843392577103, 
-0.00593876838684082, 0.006457388401031494, 3.212557775053081e-10, 1791402843424327871, 
0.004842400550842285, 0.010229766368865967, 3.787262039918095e-10, 1791402843451761788, 
-0.013179481029510498, 0.013977885246276855, 3.8576186393917463e-10, 1791402843481646568, 
0.008405447006225586, -0.025471091270446777, 4.219505134587857e-10, 1791402843511565833, 
-0.00777745246887207, -0.005552768707275391, -1.998158625674206e-06, 1791402843541389583, 
-0.004116237163543701, -0.0036295652389526367, 4.264671760913555e-10, 1791402843571524352, 
-0.01133817434310913, 0.014366686344146729, 3.908373874349286e-10, 1791402843601264091, 
-0.016735196113586426, 0.0016964077949523926, 3.264471611604335e-10, 1791402843632886175, 
0.00483471155166626, -0.005545854568481445, 2.8072163519719446e-10, 1791402843664190889, 
0.0012305378913879395, -0.03786051273345947, 2.92003190221881e-10, 1791402843691146522, 
-0.002383708953857422, 0.012511789798736572, 2.385636613428565e-10, 1791402843721010687, 
0.0012865662574768066, -0.0017662644386291504, 1.54015813018688e-10, 1791402843744498798, 
-0.0025124549865722656, 0.0001404285430908203, 4.514056112694272e-10, 1791402843780957686, 
-0.004535794258117676, -0.012389838695526123, 3.474657585000946e-10, 1791402843810852895, 
-0.00988757610321045, 0.021753907203674316, 3.755109839294746e-10, 1791402843840904213, 
0.004414260387420654, 0.0019944310188293457, 3.486435357967715e-10, 1791402843872371210, 
-0.004537522792816162, 0.01090329885482788, 3.2973051677371974e-10, 1791402843901920468, 
-0.019034922122955322, 0.0017388463020324707, 2.908026428795051e-10, 1791402843930738616, 
-0.0012243390083312988, -0.02352219820022583, 2.360641674212658e-10, 1791402843960547416, 
0.014615416526794434, -0.00558847188949585, 1.365664448410377e-10, 1791402843983216669, 
-0.02336519956588745, -0.005675673484802246, 2.4392622035340544e-10, 1791402844010508174, 
-0.012465059757232666, 0.013914704322814941, -1.9705207801257255e-06, 1791402844040753640, 
-0.005168914794921875, 0.001148819923400879, -4.007272187124879e-06, 1791402844070501212, 
0.007583200931549072, -0.004263937473297119, 6.495457669673748e-11, 1791402844100458747, 
-0.003085792064666748, -0.0006870627403259277, 2.4549003541971905e-11, 1791402844130266949, 
0.013306617736816406, 0.0010658502578735352, 1.8405533330730106e-11, 1791402844161431000, 
-0.013299942016601562, 0.0062920451164245605, -2.7801062230772605e-12, 1791402844192782935, 
-0.014946579933166504, -0.0008963346481323242, -0.000407373966095389, 1791402844220143849, 
-0.5116971135139465, 0.1882944107055664, 0.016466162819617464, 1791402844250072408, 
-0.213467538356781, 0.8372158408164978, 0.24506841538742555, 1791402844279985178, 
0.13639980554580688, 0.02924400568008423, 0.4823866779900367, 1791402844310050464, 
-0.10830271244049072, -0.19514751434326172, 0.41068847876315323, 1791402844339908848, 
0.13574504852294922, -0.20243287086486816, 0.4079276137088548, 1791402844369942840, 
-0.12037903070449829, 0.21366536617279053, 0.38946254667699076, 1791402844401074651, 
0.07071179151535034, 0.023205995559692383, 0.3938928613645651, 1791402844432435281, 
-0.12204968929290771, -0.16431915760040283, 0.45761346286402876, 1791402844459754306, 
-0.041022539138793945, 0.011470615863800049, 0.4247628181826512, 1791402844489649650, 
0.0011388063430786133, 0.1641155481338501, 0.4125570820831527, 1791402844519578365, 
0.033819615840911865, 0.04289931058883667, 0.398579535367802, 1791402844549546607, 
-0.020112812519073486, -0.12685668468475342, 0.393548072392135, 1791402844579451461, 
-0.16466748714447021, 0.031192660331726074, 0.38795796516537717, 1791402844609417731, 
0.1717866063117981, -0.01630091667175293, 0.389125486200357, 1791402844640580905, 
-0.06701016426086426, -0.0009821653366088867, 0.38107655293228654, 1791402844672644465, 
0.1718565821647644, -0.11195367574691772, 0.4864009491980418, 1791402844709193769, 
0.012823104858398438, 0.009393930435180664, 0.4384871776877507, 1791402844739362549, 
0.017947852611541748, -0.11521059274673462, 0.41819281018473603, 1791402844769282585, 
-0.14170074462890625, -0.03676539659500122, 0.3667311240184467, 1791402844800550891, 
0.209506094455719, -0.009215354919433594, 0.3507143477325982, 1791402844831624739, 
-0.05091434717178345, 0.03713589906692505, 0.4164801963557899, 1791402844858977633, 
-0.03413575887680054, -0.12416261434555054, 0.387651532365461, 1791402844888863189, 
-0.07828009128570557, 0.04049104452133179, 0.3332725193365264, 1791402844911928164, 
-0.17677068710327148, 0.16799813508987427, 0.45826026068612297, 1791402844938860416, 
0.457919716835022, -0.18136972188949585, 0.4198860030358942, 1791402844968899121, 
-0.20075011253356934, -0.18708622455596924, 0.40696148169913465, 1791402844999003977, 
0.2291020154953003, 0.08682489395141602, 0.3920139319127008, 1791402845028661729, 
-0.1246379017829895, 0.14763444662094116, 0.3609601576245989, 1791402845058705582, 
-0.11899983882904053, -0.12368226051330566, 0.3972149009193057, 1791402845087984161, 
0.16352558135986328, -0.02824467420578003, 0.3589775706544896, 1791402845120739022, 
-0.04741048812866211, 0.15480577945709229, 0.43933507495658985, 1791402845148492271, 
-0.22087442874908447, 0.02597266435623169, 0.41207692757833286, 1791402845178405333, 
0.007905662059783936, -0.0010336637496948242, 0.40673858934738377, 1791402845208463270, 
0.5047372579574585, -0.2713189721107483, 0.41127970222243615, 1791402845238279135, 
-0.24449032545089722, 0.05472993850708008, 0.3763511720873327, 1791402845268196674, 
-0.0902058482170105, 0.22729384899139404, 0.36789557544235185, 1791402845298137698, 
0.18126094341278076, -0.05799359083175659, 0.3863785373944144, 1791402845328528473, 
0.015627145767211914, -0.029606223106384277, 0.3884387770315951, 1791402845360971467, 
-0.11995804309844971, 0.11068564653396606, 0.45130804828071264, 1791402845388005748, 
-0.06470847129821777, 0.00037604570388793945, 0.40641302738969204, 1791402845418003083, 
0.140478253364563, -0.15094512701034546, 0.4154815991131134, 1791402845447914360, 
0.02519392967224121, 0.0444256067276001, 0.406220282760514, 1791402845476809314, 
-0.028432726860046387, -0.021247148513793945, 0.39569223032908907, 1791402845506806704, 
0.023135066032409668, -0.0470241904258728, 0.3742125144497311, 1791402845537747697, 
-0.00849926471710205, 0.11094009876251221, 0.38191221019654165, 1791402845568494230, 
0.027731120586395264, 0.04526907205581665, 0.3744685578775489, 1791402845600649868, 
0.03697013854980469, -0.06700187921524048, 0.4492928425694248, 1791402845627940326, 
0.008683860301971436, 0.01670527458190918, 0.423661680587984, 1791402845656833172, 
-0.15195631980895996, 0.05272001028060913, 0.39506768231440414, 1791402845687443782, 
-0.019217073917388916, -0.07573992013931274, 0.4103528633069792, 1791402845717429822, 
-0.015561699867248535, -0.006110131740570068, 0.40174730780850954, 1791402845747358926, 
0.018940269947052002, -0.138960599899292, 0.39563459610432955, 1791402845777628413, 
-0.06043952703475952, 0.08900350332260132, 0.34885987538603647, 1791402845809083066, 
0.07914537191390991, 0.004640340805053711, 0.3753376056021875, 1791402845839800131, 
-0.022395312786102295, 0.07733941078186035, 0.41920768246810897, 1791402845867178098, 
-0.055482327938079834, -0.02135688066482544, 0.37052087928593, 1791402845897109526, 
-0.0015522241592407227, 0.0918961763381958, 0.34177463945853026, 1791402845918795721, 
-0.16384851932525635, 0.025790154933929443, 0.4098054146458908, 1791402845957108671, 
0.0375056266784668, -0.056870222091674805, 0.40617675952481586, 1791402845986959687, 
-0.0005246400833129883, 0.12443041801452637, 0.3976114745604512, 1791402846017107017, 
-0.10668933391571045, -0.0805124044418335, 0.42386623759454006, 1791402846047690404, 
0.0866747498512268, -0.017551183700561523, 0.41594227320168864, 1791402846078180172, 
-0.05247896909713745, -0.028309941291809082, 0.4259919604619284, 1791402846106730107, 
0.08574163913726807, 0.11517441272735596, 0.3810452405136045, 1791402846146653199, 
-0.12291699647903442, -0.07791584730148315, 0.3841265572090838, 1791402846177028979, 
0.0035535097122192383, 0.09223794937133789, 0.36838544502901743, 1791402846209321150, 
0.002546250820159912, -0.0072440505027771, 0.4708843477347619, 1791402846236659511, 
-0.037241578102111816, 0.022296130657196045, 0.4290746235820578, 1791402846266437823, 
0.04636043310165405, -0.05802023410797119, 0.433405396510532, 1791402846296421655, 
0.08829313516616821, 0.0044310688972473145, 0.4151741482369716, 1791402846326341733, 
0.0029326677322387695, -0.08525145053863525, 0.4089972063501332, 1791402846356285657, 
-0.0003306865692138672, -0.11736500263214111, 0.40267695435464446, 1791402846386295381, 
0.03698307275772095, -0.02210754156112671, 0.3756363429660649, 1791402846416632577, 
0.06720775365829468, 0.10338449478149414, 0.34828079787530736, 1791402846448916599, 
0.15166395902633667, 0.1180543303489685, 0.4457147592392566, 1791402846476213209, 
-0.00715559720993042, -0.04114425182342529, 0.44121299756371035, 1791402846506302937, 
-0.0603870153427124, -0.1355639100074768, 0.37019621463526015, 1791402846528849755, 
-0.08180183172225952, -0.07385706901550293, 0.4370913253961829, 1791402846556083365, 
0.10278314352035522, 0.020077884197235107, 0.37784395077508237, 1791402846586144627, 
-0.02921062707901001, -0.0008656978607177734, 0.3837308209864685, 1791402846615944512, 
-0.006878495216369629, 0.07588821649551392, 0.39161787522952324, 1791402846646024977, 
0.006386816501617432, -0.011240184307098389, 0.4287182541589788, 1791402846674913875, 
-0.07475060224533081, 0.07326459884643555, 0.40022762143405843, 1791402846705699955, 
0.20860767364501953, -0.05097651481628418, 0.40151691654751104, 1791402846737035336, 
0.05663704872131348, -0.14841467142105103, 0.4126241654541647, 1791402846769172274, 
0.1331459879875183, 0.06120842695236206, 0.418224057063127, 1791402846795637623, 
0.07760173082351685, -0.0637330412864685, 0.3443237920638482, 1791402846825423191, 
-0.1572851538658142, 0.04438364505767822, 0.38344834446273324, 1791402846855408031, 
-0.008771419525146484, 0.19320625066757202, 0.4275865590952097, 1791402846885309594, 
0.12488532066345215, -0.02680569887161255, 0.4287170216284641, 1791402846915280072, 
0.018297672271728516, -0.20164483785629272, 0.42237317126528795, 1791402846945218738, 
-0.22483915090560913, -0.09825378656387329, 0.39041217135857875, 1791402846976669153, 
0.13316506147384644, -0.043140947818756104, 0.36598788099921675, 1791402847008607081, 
0.006804704666137695, 0.14092111587524414, 0.414298638003979, 1791402847035144253, 
0.04659539461135864, -0.011153757572174072, 0.3930109012879685, 1791402847065209737, 
0.20460087060928345, 0.022441208362579346, 0.40799783317295246, 1791402847094940090, 
-0.17812764644622803, 0.015349864959716797, 0.43111597628101767, 1791402847123875236, 
-0.0005908608436584473, -0.05587351322174072, 0.3920363262233809, 1791402847155072889, 
-0.07863610982894897, -0.16508138179779053, 0.39896459364332854, 1791402847185157782, 
0.06652313470840454, 0.06033670902252197, 0.3608797993337689, 1791402847217210698, 
-0.03253364562988281, 0.11846232414245605, 0.4337130647103429, 1791402847244946590, 
-0.16007846593856812, 0.014396131038665771, 0.42689861476255203, 1791402847274616431, 
0.03175961971282959, -0.068728506565094, 0.431387682120014, 1791402847305005847, 
0.06907051801681519, -0.043129026889801025, 0.4517979031482159, 1791402847334517300, 
0.023297131061553955, -0.09625476598739624, 0.42695333525361456, 1791402847364619498, 
0.15226829051971436, -0.01081913709640503, 0.3820705865171872, 1791402847394396207, 
0.06885230541229248, -0.03769141435623169, 0.36890849074769233, 1791402847424607414, 
0.07520580291748047, 0.051100969314575195, 0.3460103417713276, 1791402847456666331, 
-0.17340707778930664, 0.0462302565574646, 0.41806330196166774, 1791402847484583310, 
0.015144765377044678, 0.05417090654373169, 0.41568482307820953, 1791402847514178253, 
-0.0788886547088623, -0.16187834739685059, 0.41659495739382235, 1791402847544092609, 
0.09492850303649902, -0.09073126316070557, 0.3947688341636304, 1791402847574118847, 
-0.05872553586959839, -0.013692677021026611, 0.39791528920271313, 1791402847604164057, 
-0.027800917625427246, -0.015510618686676025, 0.39006180548755964, 1791402847633934985, 
0.14468276500701904, -0.3265566825866699, 0.3157626224627987, 1791402847665047472, 
0.11694008111953735, -0.48801368474960327, 0.09975232576019544, 1791402847696648996, 
-0.24044394493103027, -0.08635497093200684, -0.09745369837058052, 1791402847723944879, 
-0.022102952003479004, 0.274840772151947, -0.07742199814790751, 1791402847752833815, 
0.10611093044281006, 0.12250620126724243, -0.04162622393099402, 1791402847783722421, 
0.14170008897781372, -0.1475440263748169, -0.025708375592559753, 1791402847813698582, 
-0.08483171463012695, -0.08709114789962769, -0.004122274942918296, 1791402847843594225, 
0.012487709522247314, 0.0684201717376709, 0.008998635690304409, 1791402847873549948, 
0.042283594608306885, -0.008177638053894043, -0.0015579031012780183, 1791402847904682627, 
-0.045623838901519775, -0.025707125663757324, -0.005519803858597313, 1791402847936572814, 
0.6764453649520874, 0.28198570013046265, 0.025159434367955993, 1791402847963559811, 
0.11295133829116821, 0.8139121532440186, 0.17434028575581964, 1791402847985020280, 
0.24763160943984985, 0.21102118492126465, 0.41839730013010473, 1791402848016679059, 
-0.18905878067016602, -0.3583579659461975, 0.579234566215933, 1791402848043569773, 
0.08664911985397339, -0.3335031270980835, 0.48538241296339407, 1791402848073445387, 
0.04512566328048706, 0.17033714056015015, 0.40931014678576844, 1791402848103297547, 
-0.2474573850631714, -0.00016313791275024414, 0.33155239830339334, 1791402848133460242, 
-0.08608996868133545, 0.1028214693069458, 0.3098955558726918, 1791402848163298986, 
0.031020641326904297, -0.26314133405685425, 0.3771140523564469, 1791402848193567857, 
-0.3184244632720947, 0.3548009991645813, 0.3643603273964601, 1791402848224633436, 
0.03541064262390137, -0.15744322538375854, 0.4152379567822804, 1791402848255597700, 
0.5543680787086487, -0.11463719606399536, 0.4572584776161488, 1791402848283237371, 
-0.013213872909545898, -0.09316641092300415, 0.3932784743291601, 1791402848305329284, 
-0.14577645063400269, 0.20652633905410767, 0.42706848153462884, 1791402848334870491, 
-0.11531150341033936, -0.03966641426086426, 0.41545838650192735, 1791402848363326586, 
0.11726123094558716, -0.24157601594924927, 0.38210338767294827, 1791402848393210593, 
0.139881432056427, -0.12122809886932373, 0.38657544815025174, 1791402848423158611, 
0.09605085849761963, 0.19992554187774658, 0.3696123484549671, 1791402848453320410, 
-0.08872348070144653, -0.03269314765930176, 0.4063478227496491, 1791402848482453622, 
0.11071324348449707, 0.10927945375442505, 0.3908507881709779, 1791402848512696823, 
0.29706650972366333, -0.24300616979599, 0.3984552917164014, 1791402848544642086, 
0.05307501554489136, 0.06176722049713135, 0.40759117568938436, 1791402848582264190, 
0.07152700424194336, -0.059250473976135254, 0.39855891246728864, 1791402848612232375, 
-0.011739790439605713, -0.05781275033950806, 0.41973497841879487, 1791402848642205243, 
0.018410682678222656, 0.06237459182739258, 0.4146440474640315, 1791402848672726711, 
-0.13500869274139404, -0.031186819076538086, 0.368346202412335, 1791402848704620359, 
-0.09155571460723877, -0.1369268298149109, 0.4225150657824642, 1791402848732060971, 
-0.06563049554824829, -0.06614768505096436, 0.40190856492382265, 1791402848761872400, 
0.2916698455810547, -0.025813639163970947, 0.3470856012830505, 1791402848784650930, 
0.03358197212219238, -0.05817604064941406, 0.4116998069690829, 1791402848822103801, 
-0.017151296138763428, -0.17375504970550537, 0.3664813971657629, 1791402848850829702, 
-0.0163690447807312, -0.4828680753707886, 0.24181729562261128, 1791402848881894456, 
0.22433555126190186, -0.26231932640075684, -0.005218356319438371, 1791402848912719507, 
-0.201494038105011, -0.1985531449317932, -0.10747327381930687, 1791402848945080228, 
0.4828178286552429, 0.29119211435317993, -0.10680756029571647, 1791402848970842192, 
-0.19240283966064453, 0.14841973781585693, -0.023389568294351175, 1791402849001496440, 
0.1457209587097168, -0.1461924910545349, 0.022129972927155347, 1791402849031413310, 
-0.22292768955230713, -0.08588606119155884, 0.00882981130002804, 1791402849061383315, 
0.17481815814971924, -0.03560584783554077, -0.008546532376691266, 1791402849091323267, 
-0.003600597381591797, -0.016801059246063232, -0.009219636389357124, 1791402849121336510, 
0.10725176334381104, 0.05921494960784912, 0.01077436929616306, 1791402849152777745, 
0.6128613352775574, 0.5612644553184509, 0.12360679105802275, 1791402849184258985, 
0.491421103477478, 0.4698747396469116, 0.5130247314290871, 1791402849221090429, 
-0.3148579001426697, -0.47627073526382446, 0.5954953900490964, 1791402849251081081, 
0.4815056324005127, -0.5076233744621277, 0.5742809133228121, 1791402849280983335, 
-0.23357194662094116, 0.2795242667198181, 0.5009562520761405, 1791402849312944566, 
0.22447383403778076, 0.07517945766448975, 0.45372767146295084, 1791402849343727001, 
-0.10293930768966675, -0.3589903712272644, 0.44837323501844456, 1791402849379795871, 
0.07621300220489502, -0.059768736362457275, 0.4168485445531865, 1791402849410872899, 
-0.15486925840377808, 0.4863317012786865, 0.4949018228737491, 1791402849439802771, 
0.08624732494354248, -0.08414733409881592, 0.48473133367705656, 1791402849471814184, 
-0.032070815563201904, -0.36349332332611084, 0.4849238472947685, 1791402849503441365, 
0.0692131519317627, -0.02749049663543701, 0.5528454367696055, 1791402849529827315, 
0.12613332271575928, 0.12189269065856934, 0.45325850839007314, 1791402849560477670, 
-0.002563953399658203, -0.1055024266242981, 0.46233642801671126, 1791402849590686151, 
0.00024813413619995117, -0.05108010768890381, 0.4625326860638588, 1791402849620550766, 
0.03171771764755249, 0.007685422897338867, 0.4530451974718747, 1791402849649847060, 
-0.006440520286560059, -0.1132240891456604, 0.476090587101726, 1791402849679806629, 
-0.031442105770111084, 0.1397973895072937, 0.4563742131456278, 1791402849713155573, 
0.10298198461532593, 0.005084097385406494, 0.5525824393566519, 1791402849740294491, 
-0.12370443344116211, -0.19003397226333618, 0.46889234608774166, 1791402849770207388, 
0.06321209669113159, -0.2091788649559021, 0.46109582332843774, 1791402849800344494, 
0.09478247165679932, 0.21796011924743652, 0.464098472487184, 1791402849830261190, 
0.09139847755432129, 0.15541714429855347, 0.4989105150818303, 1791402849860087047, 
0.3701697587966919, -0.14605623483657837, 0.5396968367563304, 1791402849889927377, 
-0.2850109934806824, -0.25803709030151367, 0.49756194903128564, 1791402849920899852, 
0.0059143900871276855, -0.03263580799102783, 0.44730654193249836, 1791402849953132965, 
-0.19296479225158691, 0.3777121901512146, 0.5345193329600069, 1791402849978795025, 
0.21900629997253418, -0.10691499710083008, 0.48558172933844246, 1791402850009669904, 
-0.1699046492576599, -0.10462236404418945, 0.5199763727444477, 1791402850039635210, 
0.17191344499588013, -0.0891464352607727, 0.5363133455469922, 1791402850069696926, 
-0.22675883769989014, 0.28590822219848633, 0.5282144046218181, 1791402850099544595, 
0.0014878511428833008, -0.03929668664932251, 0.5451464944969925, 1791402850129498199, 
-0.12150180339813232, -0.2067948579788208, 0.5036217108498423, 1791402850161314176, 
-0.14467018842697144, -0.10728496313095093, 0.5217651480696642, 1791402850192193562, 
-0.006742715835571289, 0.1682528853416443, 0.5684287966960658, 1791402850219381690, 
0.1435062289237976, 0.07367289066314697, 0.5065415184548366, 1791402850249331367, 
0.06867629289627075, -0.18465125560760498, 0.49962292878940073, 1791402850279347696, 
-0.047596514225006104, -0.117889404296875, 0.49876475247777974, 1791402850309117485, 
0.08396995067596436, 0.1845940351486206, 0.49449806517502043, 1791402850339089399, 
-0.12311744689941406, 0.12070447206497192, 0.5178873906668464, 1791402850369019789, 
-0.08814847469329834, -0.19500261545181274, 0.48732265746777326, 1791402850401023873, 
0.009692966938018799, -0.24491506814956665, 0.5156398333695862, 1791402850431776944, 
0.008143007755279541, 0.32836806774139404, 0.6063038208094785, 1791402850458866755, 
0.028465628623962402, 0.23541653156280518, 0.631416667517045, 1791402850487805694, 
-0.006093323230743408, -0.31867700815200806, 0.5759290522298681, 1791402850518990755, 
0.041680097579956055, -0.3129228949546814, 0.5935083153789583, 1791402850548678596, 
0.07421916723251343, 0.20248591899871826, 0.5918656523942885, 1791402850578707349, 
-0.014020264148712158, 0.2859182357788086, 0.5881874312295967, 1791402850609374335, 
0.02759552001953125, -0.3418771028518677, 0.5656371804832018, 1791402850640944612, 
0.055750370025634766, -0.19612914323806763, 0.6461918761533653, 1791402850668549879, 
-0.07476389408111572, 0.20683014392852783, 0.5875641580559597, 1791402850698409639, 
0.08170437812805176, 0.045127689838409424, 0.5732880140409903, 1791402850728488855, 
-0.09820753335952759, -0.27829664945602417, 0.5784860813882199, 1791402850758503771, 
-0.03100419044494629, -0.09952354431152344, 0.5954004402512705, 1791402850788230089, 
-0.038262009620666504, 0.26546746492385864, 0.599312835605047, 1791402850818265023, 
-0.1360589861869812, 0.006859123706817627, 0.6128343776729344, 1791402850848870958, 
0.15636485815048218, -0.21335238218307495, 0.5789150080664931, 1791402850881131792, 
0.256852388381958, -0.049364686012268066, 0.7392870149611365, 1791402850908100916, 
-0.30617403984069824, -0.013387143611907959, 0.651498645462833, 1791402850938047755, 
0.2749853730201721, -0.26163625717163086, 0.6242803321040701, 1791402850967929445, 
-0.22765791416168213, -0.100924551486969, 0.5848866197717767, 1791402850997982713, 
0.14795541763305664, 0.15729665756225586, 0.5860021461493696, 1791402851027839944, 
0.007715106010437012, -0.19508075714111328, 0.6065187365434311, 1791402851056806237, 
-0.17896872758865356, -0.19505947828292847, 0.5175043103199503, 1791402851088962783, 
0.02928537130355835, 0.16074490547180176, 0.5167583406297647, 1791402851121485495, 
-0.3173164129257202, -0.008768320083618164, 0.6514455706685954, 1791402851147612787, 
-0.01598912477493286, -0.15619546175003052, 0.5904060277765858, 1791402851187721573, 
0.013509511947631836, 0.29286348819732666, 0.6432561291586976, 1791402851217513106, 
0.03303724527359009, -0.1985236406326294, 0.6099037056598525, 1791402851249247155, 
0.18680834770202637, -0.3932528495788574, 0.5937833380195052, 1791402851280431969, 
0.03160172700881958, 0.08396804332733154, 0.6797991949592964, 1791402851307419518, 
-0.12233656644821167, 0.24579644203186035, 0.6146750635178596, 1791402851337335146, 
0.13339269161224365, -0.31789904832839966, 0.5921060228137135, 1791402851367209830, 
-0.08651363849639893, -0.3030058741569519, 0.5821251902122239, 1791402851397194857, 
0.12692207098007202, 0.341880738735199, 0.5968195812931761, 1791402851427124635, 
-0.10662287473678589, -0.07924330234527588, 0.6027073951615771, 1791402851456078652, 
0.29712533950805664, -0.3983891010284424, 0.5331226701554637, 1791402851489256028, 
-0.23143768310546875, 0.14663910865783691, 0.6600833478421128, 1791402851517105437, 
0.24028152227401733, 0.13638532161712646, 0.6087547381506122, 1791402851547117675, 
-0.19706213474273682, -0.29213207960128784, 0.610304121854255, 1791402851576967511, 
-0.09385639429092407, -0.026842117309570312, 0.6410981272309144, 1791402851606884919, 
-0.02424246072769165, 0.26937294006347656, 0.6514210707421999, 1791402851636759374, 
-0.055635690689086914, -0.40793585777282715, 0.6088707905475529, 1791402851666657771, 
-0.03093719482421875, -0.45843571424484253, 0.5866070620389899, 1791402851697463325, 
0.029486417770385742, 0.13031065464019775, 0.5904240855784759, 1791402851728840003, 
-0.3024371266365051, 0.2297886610031128, 0.6352666559923273, 1791402851756584792, 
0.36895132064819336, -0.4005736708641052, 0.5925400376728869, 1791402851786506955, 
-0.15811699628829956, -0.03394192457199097, 0.6133294118736822, 1791402851816445039, 
0.0815819501876831, 0.15050458908081055, 0.5818084986917, 1791402851846374031, 
0.125718355178833, -0.3945521116256714, 0.4965223806665541, 1791402851876309227, 
-0.48948580026626587, -1.0630836486816406, 0.30640351920801395, 1791402851906272059, 
-0.20338261127471924, -0.07486927509307861, 0.0799615388653756, 1791402851935803277, 
0.5892770886421204, 0.41814249753952026, 0.03933796172579497, 1791402851966965080, 
-0.29187655448913574, 0.751152753829956, 0.2716480542316151, 1791402851996199877, 
0.4099683165550232, 0.4738149642944336, 0.6455799879590732, 1791402852026024220, 
0.18380582332611084, -0.288280189037323, 0.7772543842276048, 1791402852056015027, 
-0.2513079047203064, -0.5150659084320068, 0.7665653675214433, 1791402852085973609, 
0.3385453224182129, 0.07757377624511719, 0.7525367056657519, 1791402852115911188, 
-0.5194596648216248, -0.1366392970085144, 0.7046894186049709, 1791402852145893974, 
0.25939249992370605, -0.36234909296035767, 0.6041252713837998, 1791402852177037094, 
-0.3473634719848633, -0.07485520839691162, 0.525037035460693, 1791402852209212115, 
0.2814122438430786, 0.01565718650817871, 0.5858592068121103, 1791402852236060719, 
-0.14857178926467896, -0.10872858762741089, 0.583312475983073, 1791402852265603536, 
0.2501712441444397, 0.2409301996231079, 0.614765505120301, 1791402852295603898, 
-0.2891887426376343, -0.07547712326049805, 0.6200437606021658, 1791402852325594511, 
0.0862463116645813, -0.3815736770629883, 0.6409753683574358, 1791402852355428558, 
-0.05016279220581055, 0.12506884336471558, 0.657675095543659, 1791402852385412197, 
-0.07072514295578003, 0.16749614477157593, 0.6167243023650725, 1791402852417089692, 
0.1902645230293274, -0.32794320583343506, 0.6129963809716481, 1791402852447807581, 
-0.3008674383163452, 0.0968974232673645, 0.6805713958199631, 1791402852485268679, 
-0.08478003740310669, 0.024078726768493652, 0.631493003806783, 1791402852515255734, 
-0.12198817729949951, -0.33386164903640747, 0.6017607373849009, 1791402852545089781, 
0.07241588830947876, -0.046552956104278564, 0.5872886514878839, 1791402852577020243, 
-0.036665380001068115, 0.24067044258117676, 0.62456277773426, 1791402852607711799, 
-0.07480579614639282, -0.24752449989318848, 0.6861062261816596, 1791402852634978673, 
-0.04427140951156616, -0.19220471382141113, 0.6341634125631191, 1791402852664871385, 
-0.13708090782165527, 0.3793215751647949, 0.622263771050032, 1791402852695300125, 
-0.03333234786987305, -0.32688623666763306, 0.6301068662135889, 1791402852724981760, 
0.07890838384628296, -0.250385582447052, 0.6382874713109427, 1791402852754870719, 
-0.5955563187599182, 0.2669879198074341, 0.6576813726983336, 1791402852785445363, 
0.07422471046447754, -0.14522886276245117, 0.638049618072853, 1791402852817228700, 
-0.20622533559799194, -0.2401612401008606, 0.6620194657674071, 1791402852844686636, 
-0.20014101266860962, -0.3945651054382324, 0.5359642536556604, 1791402852874696160, 
-0.1852865219116211, -0.5799820423126221, 0.31610699992044206, 1791402852897512965, 
-0.5392966866493225, -0.2941262722015381, 0.14713419843719622, 1791402852923812489, 
0.3037026524543762, -0.3038802742958069, -0.0005545078295268179, 1791402852954484180, 
-0.21831554174423218, 0.09539055824279785, -0.03201371371301945, 1791402852984374763, 
0.06580793857574463, -0.019109368324279785, -0.020927481611644205, 1791402853014357463, 
-0.10045766830444336, -0.1297937035560608, -0.013142874797280778, 1791402853044696716, 
0.6353188753128052, 0.6690225601196289, 0.06946266528802399, 1791402853074340400, 
0.31077975034713745, 0.18442600965499878, 0.30100513969294057, 1791402853105237096, 
0.21027112007141113, -0.36577165126800537, 0.43720631867429627, 1791402853137015065, 
-0.29250138998031616, -0.07259726524353027, 0.5040304310401221, 1791402853164193373, 
-0.028182029724121094, -0.05278503894805908, 0.4227358130466588, 1791402853194450326, 
-0.18002468347549438, -0.21221113204956055, 0.38463898666327095, 1791402853223984339, 
-0.13730543851852417, -0.25031858682632446, 0.33209174235855565, 1791402853254058191, 
-0.19855624437332153, 0.17566722631454468, 0.3268621257931199, 1791402853284053008, 
0.11044710874557495, 0.21650981903076172, 0.35046664525803456, 1791402853314043301, 
-0.06584614515304565, -0.3600882887840271, 0.3419304936638937, 1791402853345470769, 
-0.17241418361663818, -0.2862088680267334, 0.3278035459288419, 1791402853376906998, 
0.13911980390548706, 0.30671852827072144, 0.39490788649512093, 1791402853403970484, 
0.010521948337554932, 0.18562382459640503, 0.37852816044187604, 1791402853432813812, 
-0.2931396961212158, -0.39888226985931396, 0.3567477577539862, 1791402853462847500, 
-0.166245698928833, -0.10487163066864014, 0.33208361299863937, 1791402853494062730, 
0.03492063283920288, 0.04357147216796875, 0.3612753500209426, 1791402853523760898, 
0.006562411785125732, -0.015104115009307861, 0.37819717509552037, 1791402853553775893, 
-0.14799869060516357, 0.04938626289367676, 0.3526622327717488, 1791402853584868790, 
0.00745081901550293, -0.2528799772262573, 0.35909937322490154, 1791402853616017715, 
-0.031849443912506104, -0.15622538328170776, 0.40384678086090126, 1791402853643518083, 
-0.22869634628295898, 0.050914108753204346, 0.36495807860802715, 1791402853673625275, 
0.019100606441497803, 0.0002224445343017578, 0.364551030044815, 1791402853703493274, 
-0.04623526334762573, -0.06345129013061523, 0.340216341985117, 1791402853733606674, 
-0.17799007892608643, -0.28294622898101807, 0.3571964747500609, 1791402853763461455, 
-0.040588438510894775, 0.03804832696914673, 0.36529435733923077, 1791402853793653120, 
-0.06928211450576782, 0.21596121788024902, 0.35657273702462444, 1791402853824905960, 
0.05882406234741211, -0.09670394659042358, 0.3829517476668084, 1791402853852852166, 
-0.13681524991989136, -0.2523171305656433, 0.3537011341777497, 1791402853881832970, 
-0.0061460137367248535, 0.042541563510894775, 0.3415599342277388, 1791402853912746156, 
0.060799241065979004, 0.14821279048919678, 0.38105209236018645, 1791402853942626760, 
-0.02252197265625, -0.07033926248550415, 0.37919465085172976, 1791402853972641028, 
-0.22607123851776123, 0.0031369924545288086, 0.3463883527340071, 1791402854002678581, 
-0.26345258951187134, -0.2367570996284485, 0.33044324055069274, 1791402854033219126, 
-0.25040191411972046, -0.24734824895858765, 0.30049430667978827, 1791402854065317012, 
0.08101248741149902, -0.44750213623046875, 0.2366825076079495, 1791402854092427024, 
-0.7000935673713684, -0.16006016731262207, -0.008839167152878316, 1791402854121299190, 
0.153392493724823, 0.14873039722442627, -0.05988456915073202, 1791402854152242368, 
-0.15810924768447876, 0.01402205228805542, -0.012483733841963452, 1791402854182114865, 
0.17829769849777222, -0.2119063138961792, 0.026829086011181627, 1791402854212351295, 
-0.15669620037078857, -0.02665811777114868, 0.022844930980297995, 1791402854242288053, 
0.626882016658783, 0.27752649784088135, 0.03627836875522914, 1791402854273287773, 
0.5074242949485779, 0.31238704919815063, 0.20873383410267016, 1791402854304937792, 
0.26423877477645874, 0.28738170862197876, 0.47901156727530303, 1791402854331999261, 
-0.1592215895652771, -0.11044460535049438, 0.47258825857922554, 1791402854360801005, 
-0.30839765071868896, -0.5364111661911011, 0.3545359499697245, 1791402854385528154, 
-0.25353002548217773, 0.08373308181762695, 0.48704899454355927, 1791402854421696671, 
-0.11539047956466675, 0.25538814067840576, 0.3959597209448421, 1791402854451689795, 
-0.07430803775787354, -0.4428855776786804, 0.3443371965173113, 1791402854481659412, 
0.15897798538208008, -0.20239770412445068, 0.2906207902221578, 1791402854513584276, 
-0.25180625915527344, 0.31140440702438354, 0.317672494590412, 1791402854544903461, 
0.10887366533279419, -0.1799471378326416, 0.411484086292205, 1791402854581429944, 
-0.14045590162277222, -0.31770867109298706, 0.3759528299762117, 1791402854611368218, 
-0.023282945156097412, 0.042692601680755615, 0.38472784111935254, 1791402854641501302, 
-0.12268352508544922, 0.09068948030471802, 0.39606538104413513, 1791402854671978331, 
-0.024139761924743652, -0.058033108711242676, 0.3742041901024231, 1791402854703162477, 
-0.06492853164672852, -0.4345719814300537, 0.39336515109725845, 1791402854741174243, 
-0.14588063955307007, 0.060718655586242676, 0.3835180516840954, 1791402854771113327, 
0.050379157066345215, 0.3537389636039734, 0.3947352211208314, 1791402854801651897, 
-0.05984830856323242, -0.007537901401519775, 0.36970397061737054, 1791402854833527318, 
-0.13336139917373657, -0.4554107189178467, 0.3893377742442575, 1791402854863373167, 
-0.08888369798660278, -0.13979589939117432, 0.40121172979008457, 1791402854900878023, 
-0.12551116943359375, 0.1949673295021057, 0.3709994337237958, 1791402854930783685, 
-0.00629425048828125, 0.23214936256408691, 0.35354947278541304, 1791402854961475700, 
0.0435175895690918, -0.3436485528945923, 0.35909565359623546, 1791402854993009248, 
-0.14676886796951294, -0.24288731813430786, 0.42384292743697455, 1791402855020651416, 
-0.11365514993667603, 0.2553834319114685, 0.40390548876940824, 1791402855050616240, 
0.06907796859741211, 0.2212158441543579, 0.3933834036570289, 1791402855080561328, 
0.006049096584320068, -0.3348974585533142, 0.38330059828343577, 1791402855110448193, 
-0.020870327949523926, -0.2828527092933655, 0.3899563645787098, 1791402855140658505, 
-0.12952500581741333, 0.24509012699127197, 0.4086289130252819, 1791402855170402547, 
0.12083196640014648, 0.40656888484954834, 0.3972660424221629, 1791402855200149819, 
-0.03299593925476074, -0.25376439094543457, 0.3409879566714745, 1791402855233464781, 
-0.02364206314086914, -0.31469786167144775, 0.4221629440103558, 1791402855260386895, 
0.03507202863693237, 0.17573893070220947, 0.4015152114562655, 1791402855290153887, 
0.038940250873565674, 0.4933892488479614, 0.3999339430831677, 1791402855320129254, 
0.2142108678817749, -0.12758076190948486, 0.3832052271569227, 1791402855350025674, 
-0.125446617603302, -0.5928483605384827, 0.36896927602693613, 1791402855379998178, 
0.02718108892440796, 0.1260685920715332, 0.38817647375519293, 1791402855410150187, 
-0.024477899074554443, 0.49620258808135986, 0.3916314805647475, 1791402855441135809, 
-0.017151296138763428, 0.07002067565917969, 0.3544018622121471, 1791402855473704054, 
0.39077597856521606, -0.583336353302002, 0.46990508923995833, 1791402855499889836, 
-0.14919650554656982, 0.03168982267379761, 0.4274439178103671, 1791402855529781317, 
-0.19193899631500244, 0.18971538543701172, 0.3580800729242641, 1791402855553105187, 
0.08156329393386841, 0.09213364124298096, 0.43359507764282823, 1791402855589635093, 
-0.01175612211227417, -0.4349992275238037, 0.3815707151478389, 1791402855619603402, 
0.018813252449035645, -0.14617109298706055, 0.3744794863349684, 1791402855649759063, 
-0.1591395139694214, 0.3991515040397644, 0.36864102704296714, 1791402855681340984, 
0.4245966076850891, 0.11572617292404175, 0.40195485102536666, 1791402855711889335, 
-0.16523396968841553, -0.3481985926628113, 0.4181141263572036, 1791402855739431275, 
0.13483870029449463, -0.133162260055542, 0.39677797489420136, 1791402855768306227, 
0.05305767059326172, 0.334502637386322, 0.4048113538610961, 1791402855799267548, 
-0.17570126056671143, 0.29000258445739746, 0.41441538470305206, 1791402855829564985, 
0.1688692569732666, -0.2856808304786682, 0.42185439556159954, 1791402855859177436, 
0.0014524459838867188, -0.3160597085952759, 0.4077229795563848, 1791402855889163700, 
0.09883558750152588, 0.13795840740203857, 0.3959268804215736, 1791402855920806914, 
-0.03082507848739624, 0.3465908169746399, 0.4433345793835537, 1791402855949059390, 
-0.0017340779304504395, -0.21283143758773804, 0.4159473471356135, 1791402855978946724, 
-0.10330456495285034, -0.19722890853881836, 0.4085617406109184, 1791402856008922313, 
0.0001634359359741211, 0.12166595458984375, 0.40882934560867507, 1791402856038924755, 
0.019396841526031494, 0.14936554431915283, 0.42096321833332895, 1791402856067834142, 
-0.06922101974487305, -0.35412245988845825, 0.40214633819916185, 1791402856097853516, 
-0.06069391965866089, 0.002545297145843506, 0.37711348394826644, 1791402856128992241, 
0.18377947807312012, 0.23922735452651978, 0.390749022950393, 1791402856161203491, 
0.08587133884429932, 0.12225252389907837, 0.44717399734851143, 1791402856188912107, 
-0.07469159364700317, -0.36241841316223145, 0.41100738680265, 1791402856218647728, 
-0.0002461075782775879, -0.1576482057571411, 0.41289051714605346, 1791402856248732529, 
-0.01780688762664795, 0.3424290418624878, 0.42528917714662345, 1791402856278664807, 
0.05659794807434082, 0.05523800849914551, 0.4405563822432509, 1791402856308535501, 
-0.14604008197784424, -0.2556300163269043, 0.4097630675125579, 1791402856338542687, 
0.07679998874664307, -0.11476629972457886, 0.39282579263504014, 1791402856369663917, 
0.012685537338256836, 0.28371453285217285, 0.40400610465117975, 1791402856401203288, 
0.1439712643623352, 0.02279961109161377, 0.46509056742789767, 1791402856428183287, 
-0.22608333826065063, -0.3151854872703552, 0.3913268117925419, 1791402856458680229, 
0.05227547883987427, -0.05133712291717529, 0.4301252154800433, 1791402856487793632, 
-0.18049681186676025, 0.2721678614616394, 0.4061056526129347, 1791402856518602363, 
0.3077854514122009, -0.13220012187957764, 0.3973780052744082, 1791402856548595612, 
-0.1417798399925232, -0.3985232710838318, 0.39939174817337975, 1791402856577920637, 
-0.1375623345375061, 0.17462021112442017, 0.38694762626397644, 1791402856609021300, 
0.3831542730331421, 0.44091320037841797, 0.40288671270058446, 1791402856641051069, 
-0.10764151811599731, -0.1534995436668396, 0.45904151584177244, 1791402856667882034, 
0.11024689674377441, -0.41935527324676514, 0.4057468474253787, 1791402856696831460, 
-0.18196624517440796, 0.04695487022399902, 0.4216684868086676, 1791402856727769629, 
-0.06346195936203003, 0.41484999656677246, 0.4505799628414349, 1791402856757588138, 
-0.02618420124053955, 0.016792714595794678, 0.4007197434077585, 1791402856787512582, 
0.11848646402359009, -0.47783422470092773, 0.3988669440189755, 1791402856817640184, 
0.010570704936981201, 0.08361226320266724, 0.41374250996432216, 1791402856849172438, 
-0.14644569158554077, 0.4815661907196045, 0.4168112287472136, 1791402856879675637, 
0.31906658411026, -0.261580228805542, 0.4410454889055234, 1791402856907263835, 
-0.1392543911933899, -0.41825926303863525, 0.4103850738111212, 1791402856937288030, 
0.03465867042541504, 0.21214622259140015, 0.4253167327202716, 1791402856967228575, 
0.008247911930084229, 0.422624409198761, 0.41855117143712944, 1791402856997338569, 
0.12877243757247925, -0.3547876477241516, 0.4010543584469086, 1791402857027109081, 
-0.24519741535186768, -0.33376169204711914, 0.40444350788380967, 1791402857057272689, 
-0.037362098693847656, 0.3252626657485962, 0.4139568039865286, 1791402857089048299, 
0.006732940673828125, 0.3798345923423767, 0.47112047905439186, 1791402857116968741, 
-0.009654462337493896, -0.31512635946273804, 0.40804210170521454, 1791402857147142346, 
0.07130104303359985, -0.31761032342910767, 0.42761784038536504, 1791402857176850203, 
-0.0912371277809143, 0.11158162355422974, 0.4384744141508308, 1791402857207139190, 
0.07302349805831909, 0.368263304233551, 0.4382408675322854, 1791402857236791680, 
-0.12590473890304565, -0.3204360604286194, 0.4257101524955474, 1791402857266758458, 
-0.05735808610916138, -0.23704272508621216, 0.411241194056783, 1791402857297081641, 
-0.05914825201034546, 0.2945443391799927, 0.3842737732992436, 1791402857329985681, 
0.3325045704841614, 0.2095929980278015, 0.48656098042243645, 1791402857356500980, 
-0.02553737163543701, -0.36430203914642334, 0.4312043646918252, 1791402857385578827, 
-0.027540624141693115, -0.24506032466888428, 0.4185856080151757, 1791402857416384268, 
-0.08607244491577148, 0.4531415104866028, 0.4515250616636785, 1791402857446307074, 
0.08437317609786987, 0.1556779146194458, 0.4393018569749768, 1791402857476289278, 
-0.1529420018196106, -0.40145939588546753, 0.43471307827324346, 1791402857506183002, 
0.04598188400268555, -0.2249011993408203, 0.43527167966594715, 1791402857537155455, 
0.039802730083465576, 0.40871572494506836, 0.42661131327705837, 1791402857569073463, 
0.07640433311462402, -0.04537379741668701, 0.48964138051446354, 1791402857596061226, 
-0.050709545612335205, -0.3399590253829956, 0.4213604256859436, 1791402857626245655, 
-0.16725993156433105, 0.02847057580947876, 0.4428121586757885, 1791402857656178750, 
-0.1668352484703064, 0.5091772675514221, 0.45052421565530537, 1791402857685929188, 
0.08331990242004395, -0.3048950433731079, 0.44551154227720907, 1791402857715897494, 
0.13738179206848145, -0.3468751311302185, 0.45932779704095883, 1791402857744998079, 
-0.16573089361190796, 0.17148131132125854, 0.40452092011658586, 1791402857777673611, 
0.1073310375213623, 0.2240801453590393, 0.4300966026464824, 1791402857808627785, 
-0.09741866588592529, -0.2615702152252197, 0.47989290424592024, 1791402857835953729, 
-0.054529786109924316, 0.05494070053100586, 0.4591025256983315, 1791402857864876897, 
-0.09170383214950562, 0.17841774225234985, 0.45172965869967824, 1791402857895507310, 
0.06512898206710815, -0.011114895343780518, 0.4529376102826633, 1791402857925510763, 
-0.24469047784805298, -0.2328283190727234, 0.4324458705887575, 1791402857955354924, 
0.3087872862815857, 0.0069637298583984375, 0.44436269484140695, 1791402857985350893, 
-0.20116204023361206, 0.25822293758392334, 0.43675568666124215, 1791402858017170162, 
0.21845614910125732, -0.22376596927642822, 0.4209092251954596, 1791402858048034029, 
-0.14474540948867798, -0.25686097145080566, 0.4534280180473256, 1791402858075174294, 
0.09725922346115112, 0.2514963746070862, 0.4393206752997711, 1791402858105187977, 
-0.10611063241958618, 0.25338536500930786, 0.39760139481960177, 1791402858127648794, 
0.1774844527244568, -0.37692707777023315, 0.46328293180465474, 1791402858165072145, 
-0.08324092626571655, -0.2627922296524048, 0.43657110068035054, 1791402858195110643, 
-0.10392117500305176, 0.31455785036087036, 0.46371546595819313, 1791402858224858745, 
-0.01739579439163208, 0.19670063257217407, 0.4141376823070891, 1791402858257373565, 
0.05029398202896118, -0.21435779333114624, 0.4669727670893298, 1791402858284902152, 
-0.05143868923187256, -0.1263856291770935, 0.4550507739748465, 1791402858314765659, 
0.02590179443359375, 0.29990077018737793, 0.4673648761282137, 1791402858344671664, 
-0.04834264516830444, -0.10621654987335205, 0.4461882789148299, 1791402858374690029, 
0.17651242017745972, -0.33513379096984863, 0.4388340169638785, 1791402858404604998, 
-0.17838424444198608, 0.1524115800857544, 0.44979559415674614, 1791402858434651885, 
0.09746259450912476, 0.2581802010536194, 0.44038437512677436, 1791402858465088244, 
-0.13222098350524902, -0.2139989733695984, 0.3940538089576777, 1791402858497431728, 
-0.02245640754699707, -0.2246055006980896, 0.48172361355958326, 1791402858524490761, 
-0.04676634073257446, 0.30798202753067017, 0.4485023775025406, 1791402858554316606, 
0.12916457653045654, 0.1054655909538269, 0.45255299431682894, 1791402858584255279, 
0.11261707544326782, -0.3480849266052246, 0.4367381921675873, 1791402858614361471, 
-0.12675511837005615, -0.07375794649124146, 0.44964265941510895, 1791402858644382685, 
0.04332631826400757, 0.3650761842727661, 0.45685901240608906, 1791402858674123186, 
-0.09150397777557373, -0.19373923540115356, 0.42034376902855475, 1791402858705217695, 
-0.09623688459396362, -0.18882745504379272, 0.39276465240486624, 1791402858737771662, 
0.049594223499298096, 0.1905187964439392, 0.5419067612130083, 1791402858764148454, 
-0.017788589000701904, 0.3047943711280823, 0.4817922734274482, 1791402858794060181, 
-0.15590447187423706, -0.4799070358276367, 0.4431825591880384, 1791402858824002653, 
0.19845670461654663, -0.19690030813217163, 0.44443545712257093, 1791402858853945883, 
-0.10382264852523804, 0.2953447103500366, 0.4632540660157908, 1791402858884114169, 
0.1549597978591919, 0.15228432416915894, 0.4487574920339563, 1791402858913962251, 
0.04289233684539795, -0.5134754776954651, 0.4285323906596095, 1791402858945414862, 
-0.22005146741867065, 0.10706430673599243, 0.4461059929500838, 1791402858976097276, 
-0.14817160367965698, 0.4509696960449219, 0.4949195952763489, 1791402859003848474, 
0.1288459300994873, -0.1997320055961609, 0.4537949940803056, 1791402859033857652, 
-0.1791214942932129, -0.42823612689971924, 0.40837467791601784, 1791402859056139006, 
-0.009160220623016357, 0.14008355140686035, 0.49683631512239557, 1791402859083778111, 
0.01509004831314087, 0.3775080442428589, 0.4673848672672527, 1791402859112828786, 
-0.005768299102783203, -0.3412069082260132, 0.4293174112501114, 1791402859143782593, 
-0.19559180736541748, -0.3340074419975281, 0.45546177287076295, 1791402859173748182, 
-0.0864061713218689, 0.3181096911430359, 0.48791625615301515, 1791402859202795862, 
0.249630868434906, 0.3839264512062073, 0.4414823608855733, 1791402859233749095, 
0.5048140287399292, -0.13671106100082397, 0.5323569225895116, 1791402859265281915, 
0.7563722133636475, 0.019515037536621094, 0.7441728053307446, 1791402859293344438, 
-0.013612210750579834, 0.16054439544677734, 0.6372302300152521, 1791402859323060222, 
0.11469733715057373, -0.34910035133361816, 0.5735405082402935, 1791402859352937733, 
-0.025708377361297607, -0.1094505786895752, 0.5512020957431417, 1791402859383032554, 
-0.09807384014129639, 0.16635435819625854, 0.550652380718999, 1791402859411800770, 
-0.11766946315765381, 0.20026564598083496, 0.48257649656406587, 1791402859442784550, 
0.006578326225280762, -0.141454815864563, 0.5202790310622083, 1791402859473229740, 
-0.06000471115112305, 0.11958187818527222, 0.5179911188932322, 1791402859506003813, 
-0.07976019382476807, 0.07066768407821655, 0.6438348271938636, 1791402859532721642, 
-0.011107325553894043, 0.013110637664794922, 0.5838944521608866, 1791402859562848853, 
-0.11441856622695923, -0.22392821311950684, 0.5876408857093173, 1791402859592704635, 
0.3442186117172241, 0.13595324754714966, 0.5639831142011333, 1791402859622749261, 
-0.35702770948410034, 0.02949625253677368, 0.568733655508783, 1791402859652430237, 
0.5386882424354553, -0.07817673683166504, 0.559477355576844, 1791402859682244346, 
-0.3128103017807007, -0.09952223300933838, 0.5784384668405957, 1791402859713264200, 
0.4941226840019226, 0.12937259674072266, 0.5575565403684186, 1791402859745255506, 
-0.24760115146636963, 0.08359813690185547, 0.656626283191225, 1791402859772249328, 
0.0009443759918212891, -0.13702327013015747, 0.5807158170805719, 1791402859802096584, 
-0.0212441086769104, 0.07556456327438354, 0.48397665524531985, 1791402859825332679, 
-0.27479463815689087, 0.1001136302947998, 0.6172008750612052, 1791402859861950592, 
0.48347288370132446, 0.07580208778381348, 0.5668847166103472, 1791402859892097500, 
-0.33206069469451904, -0.03926849365234375, 0.6125864366076107, 1791402859920806192, 
0.5008383393287659, 0.03877741098403931, 0.5374432236470258, 1791402859953986557, 
-0.23761290311813354, 0.05916869640350342, 0.5623021988060734, 1791402859984735177, 
-0.04082566499710083, 0.0544772744178772, 0.6345278351572748, 1791402860021627360, 
-0.17488116025924683, 0.03890359401702881, 0.5566623528135906, 1791402860051617878, 
-1.0219943523406982, -0.7263715267181396, 0.5229573346443462, 1791402860080862067, 
-0.4959511160850525, -0.18857789039611816, 0.2811214190303164, 1791402860113353416, 
-0.6834004521369934, -0.09677088260650635, 0.14594932277316677, 1791402860142794481, 
-0.2275094985961914, 0.12680751085281372, 0.029111894105094377, 1791402860181334195, 
-0.09991425275802612, -0.2905738353729248, -0.03491401435754083, 1791402860211283483, 
0.42184925079345703, -0.025626659393310547, -0.028540705191517857, 1791402860241271694, 
0.48923051357269287, 0.7953420281410217, 0.059719980040801576, 1791402860273896785, 
1.0143018960952759, 0.3164058327674866, 0.3085593013866956, 1791402860303687153, 
0.8372073769569397, -0.257114052772522, 0.46643632764724374, 1791402860341275779, 
0.30846482515335083, -0.18323558568954468, 0.4464748441096135, 1791402860371023727, 
0.0672757625579834, 0.4086386561393738, 0.5354378804682441, 1791402860402073613, 
-0.12130731344223022, 0.2749135494232178, 0.6045821549746716, 1791402860433525813, 
-0.2144850492477417, -0.2681395411491394, 0.6893297783746981, 1791402860460941152, 
-0.03360140323638916, -0.08737409114837646, 0.6411276510489752, 1791402860490782395, 
-0.3090915083885193, 0.2998678684234619, 0.6391731282602608, 1791402860520722198, 
-0.03830373287200928, -0.026403307914733887, 0.6035107185056202, 1791402860550736977, 
0.0347515344619751, -0.1759766936302185, 0.579909322139809, 1791402860580606901, 
-0.2426379919052124, -0.1856306791305542, 0.595022061988908, 1791402860610589286, 
0.4021921753883362, 0.16871744394302368, 0.6219023800911131, 1791402860640501800, 
-0.27521127462387085, 0.1558482050895691, 0.5643249046778264, 1791402860673257572, 
0.20698529481887817, -0.25247722864151, 0.6566440788581455, 1791402860700502687, 
-0.14563077688217163, 0.028172969818115234, 0.5781075772314481, 1791402860730585320, 
0.0971711277961731, 0.030054032802581787, 0.5731376945663257, 1791402860760335000, 
-0.28229182958602905, 0.1282510757446289, 0.5608564704827392, 1791402860790519606, 
0.046270787715911865, -0.03856396675109863, 0.5611531185953734, 1791402860820302524, 
-0.11963522434234619, -0.04327690601348877, 0.5890954083333312, 1791402860850158410, 
0.02913832664489746, 0.010631561279296875, 0.5757743006291317, 1791402860881339786, 
-0.08458775281906128, -0.024251103401184082, 0.5547740355703825, 1791402860913683054, 
-0.2931130528450012, -0.21352380514144897, 0.6575499690238624, 1791402860949993158, 
-0.8425180315971375, -0.3327261209487915, 0.5236413826257877, 1791402860979920665, 
-0.46282511949539185, -0.07815361022949219, 0.3194869284674639, 1791402861009862841, 
-0.8477296829223633, -0.44271981716156006, 0.1549670499989924, 1791402861042001143, 
-0.7160940170288086, -0.3420490026473999, 0.07122558341329681, 1791402861072468103, 
-0.053433001041412354, 0.1555061936378479, -0.027258763836116476, 1791402861098800645, 
0.07766717672348022, -0.1570354700088501, -0.07114351811384052, 1791402861129703634, 
0.22879034280776978, -0.10086286067962646, -0.08845437592616479, 1791402861159602195, 
0.2380901575088501, 0.2597777247428894, -0.02486163467153256, 1791402861189521466, 
0.13604247570037842, -0.10197597742080688, 0.0500652211042923, 1791402861219598718, 
-0.22780615091323853, -0.17317205667495728, 0.009777390088599191, 1791402861249403849, 
0.03367727994918823, -0.15792590379714966, -0.016974456968028847, 1791402861281380917, 
-0.11377906799316406, -0.004168212413787842, -0.022155665705813694, 1791402861309440688, 
0.16213858127593994, 0.028064310550689697, -0.006962220750068955, 1791402861339319166, 
-0.029115617275238037, -0.10814285278320312, 0.00896074878981412, 1791402861369431510, 
-0.026801466941833496, -0.025422334671020508, -0.002885692121631629, 1791402861399206125, 
0.09449195861816406, 0.014347195625305176, -0.0009186990451011719, 1791402861429081872, 
0.4787423014640808, 0.23438841104507446, 0.026835975849419668, 1791402861459127767, 
0.439777672290802, 0.5516567230224609, 0.21529579753721692, 1791402861489753770, 
0.9934990406036377, 0.1427045464515686, 0.38913621751641236, 1791402861521782773, 
0.2565147280693054, -0.19367742538452148, 0.48796951706570335, 1791402861549101976, 
0.5799652934074402, -0.0537223219871521, 0.4802335822146673, 1791402861578850330, 
-0.13128668069839478, -0.2568495273590088, 0.5780139939138488, 1791402861608887640, 
0.2032914161682129, 0.36411452293395996, 0.5614900637584908, 1791402861638909483, 
-0.5873337388038635, -0.061566174030303955, 0.5686213313624775, 1791402861668643938, 
0.15159058570861816, -0.16553258895874023, 0.5812471814584017, 1791402861698736870, 
-0.34103429317474365, -0.15968859195709229, 0.5543160559513846, 1791402861729410417, 
0.3526065945625305, -0.008339762687683105, 0.4820316821806062, 1791402861761578928, 
0.19545507431030273, 0.16815578937530518, 0.5503447547102674, 1791402861788559007, 
0.07142740488052368, -0.09724313020706177, 0.5212312243998249, 1791402861818615378, 
-0.11256229877471924, 0.003532886505126953, 0.5654380740652372, 1791402861848326883, 
-0.07791942358016968, -0.1134985089302063, 0.5371938592739591, 1791402861878607501, 
0.09377670288085938, -0.1587144136428833, 0.5376756252587458, 1791402861908245687, 
-0.015812695026397705, 0.04456603527069092, 0.5285733441740398, 1791402861938188224, 
0.13257503509521484, -0.03469747304916382, 0.46741080831459264, 1791402861968803855, 
-0.1468603014945984, 0.13187545537948608, 0.4028838540673686, 1791402862001191536, 
-0.031830787658691406, -0.10783952474594116, 0.513293400805013, 1791402862028071934, 
-0.1458730697631836, 0.0007721185684204102, 0.4796562872092709, 1791402862058010245, 
-0.04251188039779663, 0.07332813739776611, 0.4436048940314511, 1791402862080606871, 
-0.051410794258117676, -0.14949804544448853, 0.5277924175112161, 1791402862108199165, 
0.0884709358215332, -0.16172611713409424, 0.494415917670642, 1791402862137851393, 
-0.1413472294807434, 0.3040177822113037, 0.4880178434327637, 1791402862167763846, 
0.014252424240112305, -0.0694042444229126, 0.4796498553456159, 1791402862197747347, 
-0.016756832599639893, -0.1635502576828003, 0.48050813551326926, 1791402862227675400, 
0.17813968658447266, 0.04564601182937622, 0.4776185069600784, 1791402862257739034, 
0.04933267831802368, -0.004108250141143799, 0.43289391544826894, 1791402862289305827, 
0.17118895053863525, -0.09219563007354736, 0.4508115202072789, 1791402862319626434, 
-0.23503941297531128, -0.12359380722045898, 0.46912836971763694, 1791402862347757778, 
0.6701991558074951, -0.06228560209274292, 0.45138916418988273, 1791402862377438437, 
-0.3660547137260437, 0.014983177185058594, 0.4695845355945767, 1791402862396875331, 
-0.1346415877342224, -0.04608649015426636, 0.44528934411933063, 1791402862427381602, 
0.07546693086624146, 0.03432643413543701, 0.4366126346910057, 1791402862457305182, 
-0.4274371862411499, 0.12067580223083496, 0.45269986248009886, 1791402862487196021, 
0.5222623944282532, -0.16182845830917358, 0.46657756751011664, 1791402862517333795, 
-0.5239612460136414, -0.21117806434631348, 0.453240754893193, 1791402862547648545, 
0.6325774192810059, 0.11481821537017822, 0.47116586364652085, 1791402862577988311, 
-0.22597205638885498, 0.02948683500289917, 0.4451271959206893, 1791402862609252404, 
0.2500529885292053, -0.1558607816696167, 0.5056434449216873, 1791402862637100323, 
-0.1657353639602661, 0.14201462268829346, 0.46169659732587826, 1791402862667168186, 
0.22151786088943481, -0.14699316024780273, 0.45130176230898594, 1791402862696928137, 
-0.18545901775360107, -0.05864197015762329, 0.45766958776203565, 1791402862726877658, 
0.01440507173538208, 0.016915082931518555, 0.4158775152076995, 1791402862757195177, 
-0.03414571285247803, -0.24251329898834229, 0.39610743331778653, 1791402862786733713, 
0.0041716694831848145, 0.21502745151519775, 0.3935761755386657, 1791402862817352150, 
-0.12883096933364868, 0.09269344806671143, 0.3832260698596316, 1791402862849602432, 
0.06581968069076538, -0.25816667079925537, 0.4895287487315726, 1791402862876659489, 
-0.07106530666351318, 0.11319184303283691, 0.4664915425769084, 1791402862906633247, 
0.033192992210388184, -0.006553292274475098, 0.4392823402339673, 1791402862936550125, 
-0.00995337963104248, -0.24109429121017456, 0.4363059793241457, 1791402862966597915, 
-0.04666435718536377, 0.18394237756729126, 0.46355026790532794, 1791402862996256362, 
-0.013234257698059082, -0.1039513349533081, 0.4436912692421785, 1791402863026250541, 
-0.1104314923286438, -0.28754961490631104, 0.3930436806900288, 1791402863057588565, 
0.011325836181640625, 0.11917096376419067, 0.37622827681633253, 1791402863089206001, 
-0.025418579578399658, 0.016623973846435547, 0.441991998507429, 1791402863116122583, 
-0.2857811450958252, -0.10555970668792725, 0.39813637272632296, 1791402863146163984, 
0.27114051580429077, 0.1334250569343567, 0.41561985313897537, 1791402863176000106, 
-0.15651190280914307, -0.0628899335861206, 0.41873577535443524, 1791402863205969154, 
-0.3233162760734558, -0.16906195878982544, 0.4331139450636385, 1791402863235914049, 
-0.014858722686767578, 0.2029317021369934, 0.43419228740740495, 1791402863265766964, 
-0.2883928418159485, -0.0020143985748291016, 0.3748838644897655, 1791402863297360435, 
0.5164909362792969, -0.3112941384315491, 0.40555061417283067, 1791402863327163973, 
-0.14861738681793213, 0.21208661794662476, 0.44190263745295094, 1791402863354889681, 
0.3508862257003784, -0.027412116527557373, 0.40093093969770416, 1791402863384890135, 
0.04459649324417114, -0.15883392095565796, 0.385295443899138, 1791402863415492055, 
-0.08078747987747192, 0.05577725172042847, 0.41401722387037615, 1791402863445481862, 
0.007353663444519043, -0.008150696754455566, 0.3939217245693983, 1791402863475507176, 
-0.01894211769104004, -0.16595596075057983, 0.3977629729157444, 1791402863505402735, 
-0.16527503728866577, 0.16271352767944336, 0.3672420150937511, 1791402863538476414, 
-0.04904890060424805, -0.07390719652175903, 0.43217334590440654, 1791402863565387409, 
-0.15065830945968628, -0.17829984426498413, 0.3895958503642722, 1791402863595187993, 
-0.06623226404190063, 0.16982382535934448, 0.40566959220412857, 1791402863625205376, 
-0.29044008255004883, -0.04325157403945923, 0.40609158614551233, 1791402863655311010, 
0.1716955304145813, -0.2261229157447815, 0.40450812544176323, 1791402863685017499, 
-0.2693486213684082, 0.16411548852920532, 0.41264410355188164, 1791402863715178407, 
0.054000794887542725, 0.04606145620346069, 0.4209434054261812, 1791402863745620727, 
-0.10413700342178345, -0.1457039713859558, 0.38748383579783385, 1791402863777327469, 
0.012726247310638428, -0.04233896732330322, 0.45500089255196274, 1791402863805045302, 
-0.0755881667137146, -0.0489504337310791, 0.425503310640026, 1791402863834738062, 
0.06952250003814697, -0.07449650764465332, 0.40931273741093605, 1791402863863751862, 
0.01487511396408081, 0.09838712215423584, 0.3792808293226676, 1791402863894920259, 
-0.15968948602676392, -0.13060331344604492, 0.4046915455955376, 1791402863924578281, 
0.025455951690673828, -0.08001840114593506, 0.38888530574322816, 1791402863953819392, 
-0.04723954200744629, 0.1569029688835144, 0.3634273295741509, 1791402863986115002, 
-0.24406540393829346, -0.03942906856536865, 0.380855863083031, 1791402864017437259, 
0.41582244634628296, -0.14801639318466187, 0.447824570023112, 1791402864044794621, 
-0.3375746011734009, 0.19431018829345703, 0.4379932622971603, 1791402864074537354, 
-0.016197025775909424, -0.23427271842956543, 0.42490220172132326, 1791402864104318261, 
-0.19254571199417114, -0.29546844959259033, 0.3940383501110609, 1791402864134384079, 
-0.22102558612823486, 0.2911810874938965, 0.39747648343690856, 1791402864164321238, 
0.26865917444229126, -0.12207484245300293, 0.40291108508290835, 1791402864194307361, 
-0.18821990489959717, -0.22295719385147095, 0.36394214551382154, 1791402864225714081, 
0.03223097324371338, 0.21768218278884888, 0.36027848524561035, 1791402864257362193, 
-0.1460091471672058, 0.06336367130279541, 0.42833776686044833, 1791402864284552725, 
-0.20232337713241577, -0.21254700422286987, 0.38742534938987855, 1791402864314417216, 
0.07837605476379395, 0.13842296600341797, 0.4221810774031827, 1791402864344153444, 
-0.21859586238861084, -0.01253741979598999, 0.4195869842897787, 1791402864374277541, 
0.10978579521179199, -0.11023879051208496, 0.42157203327958814, 1791402864404155388, 
-0.15018045902252197, 0.1309637427330017, 0.42447774082529494, 1791402864434511922, 
0.016688287258148193, -0.057412683963775635, 0.3972396356664016, 1791402864465566159, 
0.09692806005477905, -0.17349618673324585, 0.3852320398680027, 1791402864496639258, 
-0.0925641655921936, 0.13827383518218994, 0.42833226284770737, 1791402864524141860, 
0.0917884111404419, -0.06837821006774902, 0.3857187426737422, 1791402864554004553, 
-0.23297375440597534, -0.2662241458892822, 0.3900297464242402, 1791402864584098121, 
0.0513424277305603, 0.24630707502365112, 0.39620296815753775, 1791402864613949428, 
-0.19737589359283447, -0.042689621448516846, 0.38919536157250983, 1791402864644014846, 
-0.10449540615081787, -0.22793656587600708, 0.41077375462164845, 1791402864673711721, 
-0.014510393142700195, 0.14935314655303955, 0.3929693165596601, 1791402864705430428, 
-0.22801905870437622, -0.057609379291534424, 0.43765548405911037, 1791402864733257851, 
0.21178346872329712, -0.19128382205963135, 0.42014546663171887, 1791402864763276569, 
-0.1084027886390686, 0.020064830780029297, 0.37612241785154843, 1791402864785639530, 
0.00468134880065918, -0.029256165027618408, 0.4474722525912604, 1791402864813288913, 
-0.1289287805557251, -0.08281350135803223, 0.3893569966638445, 1791402864843079838, 
0.017762064933776855, 0.040272057056427, 0.36699478226108584, 1791402864872922898, 
0.41183167695999146, -0.1275029182434082, 0.3468711124870471, 1791402864903361041, 
-0.40543806552886963, -0.1709294319152832, 0.3894246385976332, 1791402864931776827, 
-0.41699057817459106, 0.1937716007232666, 0.3549709600885016, 1791402864962861862, 
-1.059322476387024, -0.5206486582756042, 0.2648934793556585, 1791402864992798664, 
-1.0069615840911865, -0.24335116147994995, 0.07141215461878835, 1791402865025433356, 
0.16919678449630737, -0.08915579319000244, 0.033883675825739056, 1791402865052664146, 
-0.08187341690063477, 0.11790180206298828, 0.01081118281674423, 1791402865083021846, 
0.25603318214416504, -0.1860927939414978, -0.013177414578727686, 1791402865112497893, 
-0.06702351570129395, -0.03166627883911133, -0.04029497840002316, 1791402865142422214, 
0.043770432472229004, -0.014160692691802979, -0.019070100129501468, 1791402865172552203, 
-0.1444053053855896, -0.023607969284057617, -0.0028637089720205014, 1791402865202566876, 
0.08911126852035522, -0.06989789009094238, 0.0020320242112648566, 1791402865233512752, 
-0.09263831377029419, -0.019568443298339844, -0.001333175507649093, 1791402865266060738, 
-0.04710787534713745, -0.04087704420089722, -0.0012586804155099581, 1791402865302193245, 
-0.028593122959136963, -0.04276895523071289, 0.000851932149821825, 1791402865332068142, 
-0.06837332248687744, -0.04259169101715088, 0.0001489777406292603, 1791402865362076898, 
0.014477849006652832, -0.08184295892715454, -0.0008627323328745727, 1791402865393995997, 
-0.04955035448074341, -0.0402868390083313, -0.0015925690886961967, 1791402865424649067, 
-0.04561781883239746, -0.03684687614440918, 0.0007598726514410244, 1791402865462222324, 
0.0010842084884643555, -0.0261879563331604, 0.0012642553803535966, 1791402865490840001, 
-0.019081056118011475, -0.03532487154006958, -0.00037526530194074005, 1791402865522131053, 
-0.044499754905700684, -0.038754940032958984, -0.001022443637183617, 1791402865554193753, 
-0.021111130714416504, -0.06415367126464844, -0.0003946205699541534, 1791402865584100222, 
-0.039049625396728516, -0.06783527135848999, 5.8723102367360404e-05, 1791402865621655281, 
-0.03269970417022705, -0.04439669847488403, 0.0010365423397441286, 1791402865651557417, 
-0.011345207691192627, 0.056188881397247314, -0.0005620416856503413, 1791402865681782416, 
-0.03959101438522339, -0.0028516054153442383, -0.0005249511815245872, 1791402865713915423, 
-0.011727631092071533, 0.0064084529876708984, 0.0009281600704570258, 1791402865741400575, 
0.007353603839874268, -0.004100918769836426, 0.00138107257236139, 1791402865771395546, 
-0.04811757802963257, -0.0021615028381347656, 0.0010025194598429618, 1791402865793691115, 
-0.016016483306884766, -0.002195000648498535, 5.8819121617820477e-05, 1791402865831152392, 
0.007789194583892822, -0.0021300315856933594, -0.0018027412874409361, 1791402865861173899, 
-0.01533418893814087, -0.030870020389556885, 0.0004985327568085433, 1791402865891063687, 
-0.050783514976501465, -0.020072519779205322, 0.0010048796119183731, 1791402865921670346, 
-0.02526921033859253, -0.03783369064331055, 0.0008002618417599662, 1791402865953548254, 
-0.02780848741531372, 0.00023299455642700195, -0.0015854979085512177, 1791402865980991743, 
-0.016304850578308105, 0.02403312921524048, -0.00020873541184119698, 1791402866010974853, 
-0.03343111276626587, 0.006147623062133789, 0.0006750362781901184, 1791402866040908113, 
-0.01255863904953003, -0.015428006649017334, 0.0010257340665204748, 1791402866070892660, 
-0.020593702793121338, 0.006097137928009033, 0.00014367853577545593, 1791402866100761975, 
-0.012995004653930664, 0.0042909979820251465, -0.0012650063626184183, 1791402866130870412, 
-0.01106172800064087, -0.026255428791046143, -0.00019707272263653924, 1791402866162325918, 
-0.0013957023620605469, 0.01330113410949707, 0.0009824927999457023, 1791402866193690635, 
-0.02852761745452881, -0.04956263303756714, 0.0011403643211358872, 1791402866220660083, 
0.462663471698761, 0.11774486303329468, 0.006172673103515863, 1791402866250642824, 
0.4128190279006958, 0.4259653687477112, 0.15138273932650329, 1791402866280417787, 
1.4204987287521362, 0.2904195189476013, 0.3659382630534166, 1791402866310312844, 
0.303142786026001, 0.028824985027313232, 0.3661132732137371, 1791402866340282420, 
-0.14850926399230957, -0.3431282043457031, 0.4036890744841286, 1791402866370210177, 
0.06590533256530762, 0.03393292427062988, 0.43282188620586753, 1791402866401927096, 
-0.4011339545249939, 0.32813721895217896, 0.46151407654635646, 1791402866440247040, 
0.17459559440612793, -0.1620381474494934, 0.42524284173755084, 1791402866470046649, 
-0.184162437915802, -0.06324905157089233, 0.3722611948338301, 1791402866500034932, 
-0.30210185050964355, -0.10334581136703491, 0.36141588764160903, 1791402866530102447, 
0.06352388858795166, 0.15232813358306885, 0.36646596857103453, 1791402866561972988, 
-0.08095192909240723, 0.15268707275390625, 0.4240638384607907, 1791402866592325376, 
-0.1128760576248169, -0.21322232484817505, 0.4552806957458314, 1791402866620273958, 
0.16650480031967163, -0.17010122537612915, 0.419247253363392, 1791402866649725212, 
-0.1577615737915039, 0.216056227684021, 0.4179948961192036, 1791402866679680236, 
0.29752999544143677, 0.05740010738372803, 0.4066909825714641, 1791402866709586844, 
-0.2518519163131714, -0.13839983940124512, 0.38814201566993844, 1791402866739581113, 
-0.02533137798309326, -0.06781768798828125, 0.41101965490232545, 1791402866769543928, 
-0.050142765045166016, 0.12489831447601318, 0.36800744658619383, 1791402866802607526, 
0.027208924293518066, 0.1637398600578308, 0.4470591558510038, 1791402866839400841, 
-0.006671011447906494, -0.16387134790420532, 0.41704133161352963, 1791402866869440293, 
-0.009799063205718994, -0.13112854957580566, 0.40772058912756465, 1791402866899320254, 
-0.0952458381652832, 0.09028786420822144, 0.40425532868182, 1791402866930262499, 
-0.07201898097991943, -0.20662564039230347, 0.38914328183066105, 1791402866961781634, 
0.3606520891189575, 0.1419772505760193, 0.4111456972664624, 1791402866989111167, 
-0.5234915018081665, -0.01101076602935791, 0.3915652456195344, 1791402867019087731, 
0.07724463939666748, -0.0566558837890625, 0.34161381625539244, 1791402867042078072, 
-0.07965773344039917, 0.31788432598114014, 0.42080856878908485, 1791402867078947116, 
0.25632768869400024, -0.21139276027679443, 0.4231166747111824, 1791402867107928466, 
0.08446955680847168, -0.02924591302871704, 0.3906178845312239, 1791402867137906317, 
-0.2787933349609375, 0.276265025138855, 0.36978283482820673, 1791402867169603763, 
-0.07448399066925049, -0.05088084936141968, 0.36852324956887345, 1791402867201899133, 
-0.3271973729133606, -0.15139305591583252, 0.44222133080089243, 1791402867228643795, 
0.18365943431854248, 0.0944751501083374, 0.38297433864937225, 1791402867259095850, 
-0.12488412857055664, -0.0475773811340332, 0.3837050876103073, 1791402867288580207, 
0.09537500143051147, 0.09360414743423462, 0.3946103697744292, 1791402867318699688, 
-0.07270830869674683, -0.038580238819122314, 0.403632191055649, 1791402867348676280, 
-0.03072267770767212, -0.16138452291488647, 0.403767366977727, 1791402867378491506, 
-0.10218626260757446, 0.1556175947189331, 0.4011666152276501, 1791402867409919106, 
0.06057029962539673, -0.05244588851928711, 0.3859241831413754, 1791402867441404763, 
0.027498304843902588, 0.08235818147659302, 0.4369179864638951, 1791402867478274794, 
-0.23348158597946167, 0.01931130886077881, 0.3929498617408299, 1791402867508157392, 
-0.07443267107009888, -0.16231119632720947, 0.3921935786743282, 1791402867538138161, 
-0.0531688928604126, 0.11934643983840942, 0.38688612063901223, 1791402867570218346, 
-0.09280788898468018, 0.06833910942077637, 0.3856150578408509, 1791402867600578059, 
0.0002843141555786133, -0.19915318489074707, 0.4453076574643905, 1791402867638168892, 
0.04482382535934448, 0.06313365697860718, 0.4125118256635159, 1791402867667856541, 
0.12782680988311768, -0.1074036955833435, 0.38241356241170094, 1791402867698330819, 
-0.30313533544540405, 0.056011080741882324, 0.38719530582687955, 1791402867729571906, 
0.06220883131027222, -0.06501179933547974, 0.41445190447998354, 1791402867758055489, 
-0.4167570471763611, 0.015464365482330322, 0.3811044093973152, 1791402867787658724, 
0.08642375469207764, 0.2044086456298828, 0.39191899351901044, 1791402867817661104, 
0.019778907299041748, 0.006797373294830322, 0.41271964941091055, 1791402867847752852, 
0.3854135274887085, -0.10787606239318848, 0.4216567890469483, 1791402867877511810, 
-0.1725640892982483, 0.05161714553833008, 0.4156580419283836, 1791402867907548003, 
0.08858060836791992, -0.10258525609970093, 0.4246873546557231, 1791402867936798567, 
-0.17298680543899536, 0.0734819769859314, 0.3648709023229976, 1791402867969618008, 
-0.2936531901359558, -0.1352369785308838, 0.41675561556347823, 1791402867997374115, 
-0.2791518568992615, -0.031164050102233887, 0.3853601951018908, 1791402868037317591, 
-0.14079231023788452, 0.057035207748413086, 0.39428617774758584, 1791402868067528853, 
-0.07119059562683105, -0.007458925247192383, 0.3950947815119162, 1791402868097551497, 
-0.1708972454071045, -0.01795870065689087, 0.3817010140865055, 1791402868129925755, 
0.17169129848480225, -0.11143803596496582, 0.46205394581498394, 1791402868157097688, 
0.06198227405548096, -0.013360857963562012, 0.4322652633841196, 1791402868185932595, 
-0.08641350269317627, 0.21975570917129517, 0.3932618806718462, 1791402868216989383, 
-0.06756371259689331, -0.0903235673904419, 0.4084969500290383, 1791402868245826154, 
-0.2335941195487976, -0.14802336692810059, 0.369374283012371, 1791402868277139525, 
-0.2654716372489929, 0.008051931858062744, 0.4137447449244987, 1791402868306711883, 
0.2643697261810303, 0.16299718618392944, 0.3740532955064798, 1791402868338304733, 
0.07655036449432373, 0.00425875186920166, 0.3945293916797054, 1791402868369786525, 
0.21419960260391235, -0.10650092363357544, 0.46375157380818943, 1791402868396617272, 
0.15684950351715088, -0.010635733604431152, 0.3970197282894942, 1791402868426481201, 
-0.02478879690170288, 0.16335487365722656, 0.39237541515714713, 1791402868456493157, 
-0.10953903198242188, -0.04181188344955444, 0.3882798509273058, 1791402868486393581, 
0.0925590991973877, 0.062027931213378906, 0.39812012114556417, 1791402868516457255, 
-0.5940113067626953, -0.05801290273666382, 0.40876212309449883, 1791402868546328114, 
0.1700836420059204, -0.1702321171760559, 0.37390633430727466, 1791402868578370159, 
-0.48526114225387573, 0.20107215642929077, 0.38348508733287673, 1791402868609931798, 
0.6509694457054138, -0.017539560794830322, 0.4585700372784391, 1791402868636257117, 
-0.34827572107315063, -0.23087149858474731, 0.40328580534040154, 1791402868666057828, 
0.15187311172485352, 0.06833499670028687, 0.4108781271343636, 1791402868696043920, 
-0.14591002464294434, 0.17672938108444214, 0.4090330210452918, 1791402868725169372, 
-0.14686107635498047, 0.039891600608825684, 0.38350466995780985, 1791402868756134538, 
-0.056935012340545654, -0.1355106234550476, 0.3996291473316019, 1791402868786049108, 
-0.08119583129882812, -0.0973823070526123, 0.3834180106279101, 1791402868817684470, 
-0.1370970606803894, 0.22172492742538452, 0.397759952915244, 1791402868848436768, 
0.10840070247650146, -0.09373247623443604, 0.4243793289518669, 1791402868875965610, 
-0.22333359718322754, 0.05504715442657471, 0.4076164825824147, 1791402868905671298, 
0.09036898612976074, 0.0889708399772644, 0.4103992774938599, 1791402868935693469, 
-0.02104085683822632, -0.09077191352844238, 0.4170590507913221, 1791402868965731446, 
0.06983381509780884, 0.0873597264289856, 0.43184507472854605, 1791402868995466244, 
0.023411154747009277, -0.1370995044708252, 0.3949051824258994, 1791402869025899707, 
0.04169619083404541, -0.06773656606674194, 0.3617104282142994, 1791402869058311718, 
-0.07349938154220581, 0.20375031232833862, 0.4138228686795078, 1791402869085540215, 
0.04625898599624634, -0.1111215353012085, 0.37241449268534493, 1791402869115358888, 
-0.45522183179855347, 0.12020039558410645, 0.38496027422592577, 1791402869145242300, 
-0.4103482961654663, -0.15462583303451538, 0.36839720423906214, 1791402869175166786, 
-1.1376898288726807, -0.4107663631439209, 0.28697821904388326, 1791402869205288573, 
-0.9007309079170227, 0.06284666061401367, 0.14479082398568016, 1791402869235054445, 
-0.582802951335907, -0.30670541524887085, 0.04469458849135126, 1791402869265669990, 
-0.06080782413482666, 0.10535073280334473, -0.04853616808003509, 1791402869298080231, 
-0.02977508306503296, -0.0975150465965271, -0.020128250766530537, 1791402869324974036, 
0.27520519495010376, 0.08131760358810425, 0.0017272069385830442, 1791402869354896599, 
-0.02364516258239746, 0.1633400321006775, 0.004215943090430605, 1791402869384867277, 
0.06692177057266235, -0.15001332759857178, 0.00278921246882489, 1791402869414972917, 
-0.09943634271621704, -0.10340964794158936, -0.0007733305757011357, 1791402869443798617, 
-0.0872277021408081, -0.006753683090209961, 0.006518451724333737, 1791402869475373194, 
-0.014495134353637695, -0.044635117053985596, 0.00942195453894955, 1791402869505706976, 
-0.05206704139709473, 0.03254127502441406, -0.003813786461291257, 1791402869537933409, 
0.025067389011383057, -0.06793522834777832, -0.0022206132496018728, 1791402869564694381, 
-0.06086874008178711, -0.026947975158691406, 0.0008418843915592653, 1791402869594926204, 
-0.01780688762664795, -0.03968900442123413, 0.003682568109628324, 1791402869624885783, 
0.17585813999176025, 0.044712841510772705, 0.0017409340794639979, 1791402869654843299, 
0.756180465221405, 0.6730378270149231, 0.12522191183410555, 1791402869683816399, 
1.1705530881881714, 0.16612553596496582, 0.3013596334693868, 1791402869714556052, 
0.8870499730110168, -0.560856282711029, 0.3216262543081592, 1791402869746141132, 
-0.0171278715133667, 0.04947775602340698, 0.3869658599859229, 1791402869776592842, 
0.24475938081741333, 0.4090883135795593, 0.4512820973041744, 1791402869804384963, 
-0.05420386791229248, 0.04585808515548706, 0.41320171746915185, 1791402869834334730, 
-0.31677865982055664, 0.10596036911010742, 0.39338326856049927, 1791402869864474304, 
-0.20522040128707886, -0.1074373722076416, 0.41211907993400404, 1791402869894370770, 
-0.07501727342605591, 0.10153859853744507, 0.4172661460903124, 1791402869924481537, 
0.031260550022125244, -0.13919180631637573, 0.41667635256132596, 1791402869954498692, 
-0.05080091953277588, -0.1666143536567688, 0.3869485464977609, 1791402869986052881, 
0.1609504222869873, 0.2755761742591858, 0.3982907213275621, 1791402870016414281, 
-0.21784555912017822, 0.037073373794555664, 0.42123519164443585, 1791402870044251953, 
0.0651167631149292, 0.004850208759307861, 0.41138326217937937, 1791402870074395962, 
-0.17787718772888184, -0.009263873100280762, 0.42497988284227045, 1791402870103527198, 
0.20717257261276245, 0.020948350429534912, 0.3992600378010039, 1791402870133471201, 
-0.0514606237411499, 0.049976646900177, 0.4028800249034263, 1791402870163435257, 
0.04942619800567627, -0.08908891677856445, 0.3789059384727698, 1791402870194609350, 
-0.17876654863357544, 0.15518701076507568, 0.3907907620519617, 1791402870225742734, 
-0.03657329082489014, -0.04440516233444214, 0.4566453229846361, 1791402870253294693, 
0.14177441596984863, -0.053038597106933594, 0.4022316041192134, 1791402870283199760, 
0.1375851035118103, 0.01945650577545166, 0.40360844620383207, 1791402870313159088, 
0.030873477458953857, 0.07135015726089478, 0.39027983057589655, 1791402870343087780, 
0.18107038736343384, 0.02775263786315918, 0.39411326829097476, 1791402870372393499, 
-0.27059173583984375, -0.18367832899093628, 0.39625396313221617, 1791402870403031825, 
0.47781091928482056, 0.18120962381362915, 0.3896588917906722, 1791402870432810422, 
-0.5148669481277466, 0.14137732982635498, 0.3584203179665065, 1791402870465913612, 
0.3724713921546936, 0.05673205852508545, 0.4339948532638546, 1791402870503143476, 
-0.23665213584899902, -0.021714448928833008, 0.4142636523870449, 1791402870532755660, 
0.14772570133209229, -0.04149359464645386, 0.3963961481006637, 1791402870562686706, 
-0.15293794870376587, 0.17275470495224, 0.3666710550518972, 1791402870594240394, 
-0.04701501131057739, 0.10613316297531128, 0.3767815279771219, 1791402870625713351, 
-0.08450901508331299, -0.20367282629013062, 0.44305895974330267, 1791402870652588223, 
-0.15021568536758423, 0.15556609630584717, 0.411623991584284, 1791402870682493119, 
-0.1774633526802063, -0.05272984504699707, 0.34829245475321846, 1791402870706077731, 
0.004011631011962891, -0.13804608583450317, 0.43938959592434834, 1791402870742353494, 
-0.039829373359680176, 0.028080761432647705, 0.38864157362118534, 1791402870772473179, 
0.06892091035842896, 0.07850503921508789, 0.3918566175795398, 1791402870802260120, 
-0.28721821308135986, 0.24369192123413086, 0.38032192312665003, 1791402870834627351, 
0.2860773801803589, -0.12835407257080078, 0.42045776429805715, 1791402870864614363, 
-0.059511423110961914, 0.008120059967041016, 0.4715702799657548, 1791402870901050887, 
-0.12280440330505371, -0.15052741765975952, 0.38815269521996537, 1791402870932015558, 
-0.5408519506454468, 0.06314903497695923, 0.36408244221635183, 1791402870962722565, 
-0.5188140869140625, -0.14294356107711792, 0.27225133316009303, 1791402870992747276, 
-1.1158030033111572, -0.29188674688339233, 0.11831776764020796, 1791402871024241623, 
0.5292409062385559, -0.05269891023635864, 0.1513304927628892, 1791402871061935506, 
1.2672700881958008, 0.8085501194000244, 0.29388959956287897, 1791402871091706471, 
0.8588588237762451, 0.5131438374519348, 0.4202330670634105, 1791402871122097324, 
0.3915696144104004, -0.8018519878387451, 0.4130118238760593, 1791402871154534417, 
-0.1325255036354065, -0.14767485857009888, 0.4977975286359396, 1791402871181649782, 
-0.34456002712249756, 0.47668296098709106, 0.43881840091088675, 1791402871211497213, 
-0.0895012617111206, 0.246285080909729, 0.4005700334863959, 1791402871241433592, 
-0.5410891175270081, -0.611251711845398, 0.38064685381547775, 1791402871271422072, 
0.10570931434631348, 0.024100124835968018, 0.3685432990825096, 1791402871301510403, 
-0.22971045970916748, 0.4188203811645508, 0.3949539881534808, 1791402871331252985, 
-0.08321386575698853, -0.25926780700683594, 0.3872274645511978, 1791402871361961390, 
0.2771727442741394, -0.11984914541244507, 0.32853435452115354, 1791402871393844437, 
-0.08767390251159668, -0.10060107707977295, 0.4011549520327383, 1791402871430457701, 
-0.0829574465751648, 0.08326679468154907, 0.4084545926074126, 1791402871461091665, 
-0.1187782883644104, 0.12724757194519043, 0.42409321777235365, 1791402871491058086, 
0.1507468819618225, -0.1716078519821167, 0.4120286216993823, 1791402871521863622, 
-0.14536350965499878, 0.1338774561882019, 0.40016997096145557, 1791402871552797095, 
-0.9819048047065735, -0.30334120988845825, 0.3871672085101909, 1791402871581124696, 
-0.8974718451499939, -0.16408288478851318, 0.19196646121386207, 1791402871610772883, 
-1.1141501665115356, -0.22724658250808716, 0.11055296807732248, 1791402871639817468, 
-0.4857093095779419, -0.1085016131401062, 0.0646181162710883, 1791402871670696291, 
0.08471053838729858, 0.1598530411720276, -0.02220263512052676, 1791402871700620436, 
-0.03451871871948242, -0.20021575689315796, -0.029958333141145217, 1791402871730585128, 
0.1336597204208374, 0.03746676445007324, -0.006113709008075645, 1791402871762073939, 
0.03681820631027222, 0.1345888376235962, 0.0044094892334897925, 1791402871794394150, 
0.10290694236755371, -0.09637951850891113, -0.0025849126636941847, 1791402871830448028, 
-0.11779499053955078, 0.05938822031021118, -0.0019758310255540475, 1791402871860599240, 
-0.051851630210876465, -0.026730656623840332, 0.004261410192125196, 1791402871890283355, 
-0.04394716024398804, -0.047984540462493896, -0.003956798607648524, 1791402871922700343, 
-0.02047717571258545, -0.006909549236297607, -0.0021453806517049653, 1791402871952858547, 
-0.08233177661895752, -0.02550274133682251, 0.004757000433413655, 1791402871990101211, 
-0.06508415937423706, 0.014991998672485352, -0.00038237965464970724, 1791402872020068080, 
0.011872649192810059, -0.00494539737701416, -0.0003719756307257627, 1791402872050587042, 
0.7479487657546997, 0.65998774766922, 0.10476381968829988, 1791402872081901384, 
1.6296215057373047, 0.12268078327178955, 0.2652330544800603, 1791402872111958216, 
0.6320440173149109, -0.35238558053970337, 0.3260645748784496, 1791402872149949403, 
0.7061581015586853, 0.23176872730255127, 0.37688759157893503, 1791402872179776859, 
0.006211340427398682, 0.40239840745925903, 0.44326609165688097, 1791402872208818254, 
-0.2553030252456665, -0.08797729015350342, 0.37563575030254015, 1791402872242452966, 
-0.3034127354621887, 0.01668679714202881, 0.4520672890345223, 1791402872279638186, 
-0.29784154891967773, 0.03374636173248291, 0.42449520684089215, 1791402872309514316, 
-0.06305700540542603, -0.059797704219818115, 0.41456746720451565, 1791402872339523655, 
-0.341827392578125, -0.030115246772766113, 0.3722872013350781, 1791402872370219016, 
-0.10684233903884888, 0.039460062980651855, 0.3564307146802944, 1791402872402238333, 
-0.08189243078231812, 0.2063085436820984, 0.45164505773933006, 1791402872429450002, 
0.4590071439743042, 0.09665578603744507, 0.41126322153229994, 1791402872459601016, 
-0.3160272240638733, -0.13403242826461792, 0.4067088152891787, 1791402872489282104, 
0.13750392198562622, -0.12663251161575317, 0.40116780488732406, 1791402872519147612, 
-0.3164548873901367, 0.07579052448272705, 0.41101128415556104, 1791402872549354355, 
0.36680012941360474, 0.0063874125480651855, 0.4104641121816347, 1791402872579022150, 
-0.15715694427490234, 0.1494547724723816, 0.37550519020094075, 1791402872610306331, 
-0.04521089792251587, 0.06211817264556885, 0.37900884367263893, 1791402872642073047, 
0.14176177978515625, -0.016626417636871338, 0.4673704455233189, 1791402872668885734, 
-0.4083731174468994, -0.08505547046661377, 0.4184089561051119, 1791402872699452874, 
0.3018837571144104, -0.09131383895874023, 0.4038263836932876, 1791402872729592973, 
-0.1903277039527893, 0.31985896825790405, 0.39015924631313714, 1791402872759647889, 
0.012535929679870605, 0.033882200717926025, 0.38928816484938855, 1791402872789646615, 
-0.25481176376342773, -0.04982781410217285, 0.42102252759006104, 1791402872818758838, 
-0.13469648361206055, -0.021237492561340332, 0.39060742376043334, 1791402872848836955, 
0.21895664930343628, 0.011522769927978516, 0.3624943886581433, 1791402872881917305, 
-0.11326456069946289, 0.0984761118888855, 0.44526532027813387, 1791402872908742507, 
-0.08593326807022095, 0.0634622573852539, 0.40755949000756064, 1791402872938621713, 
0.1053321361541748, -0.08501935005187988, 0.4026739629828329, 1791402872968719592, 
0.29121696949005127, 0.03398078680038452, 0.3936149295879417, 1791402872998724858, 
-0.3196050524711609, 0.11348587274551392, 0.40424178812197276, 1791402873028548000, 
0.2544330954551697, -0.1624736189842224, 0.41909282342274584, 1791402873057223662, 
-0.22048652172088623, 0.11837059259414673, 0.36711812535483124, 1791402873090140842, 
0.4203144907951355, 0.24044394493103027, 0.41769713779726264, 1791402873118210274, 
-0.2760172486305237, -0.14068228006362915, 0.4141809429090498, 1791402873148212545, 
0.22064858675003052, 0.020565330982208252, 0.41486999693975757, 1791402873178180356, 
-0.034982919692993164, -0.0980151891708374, 0.4044096009534304, 1791402873198085068, 
-0.03382468223571777, 0.08657252788543701, 0.4046013964415582, 1791402873238068201, 
-0.9050300121307373, -0.1864437460899353, 0.38922164754729377, 1791402873267949639, 
-0.6698933243751526, -0.06821125745773315, 0.2456866707049925, 1791402873298323977, 
-1.2993643283843994, -0.34463173151016235, 0.10317187447731847, 1791402873330178451, 
-0.3421265482902527, -0.169438898563385, 0.05045495950606592, 1791402873357737848, 
-0.16033262014389038, 0.06560462713241577, 0.00546845601098432, 1791402873387611088, 
-0.0020970702171325684, -0.027064859867095947, -0.010969078300129142, 1791402873417698272, 
0.18808507919311523, -0.06633448600769043, -0.018184431990869252, 1791402873447511205, 
-0.0060457587242126465, 0.05176490545272827, -0.03181902748793596, 1791402873477745318, 
-0.0002238750457763672, 0.07644504308700562, -0.02259543605425701, 1791402873507401916, 
0.012983083724975586, -0.11910319328308105, -0.0019423176840682255, 1791402873537904565, 
0.8813779354095459, 0.2769318222999573, 0.027507121446481098, 1791402873569921496, 
1.433427333831787, 0.18572628498077393, 0.2272265532718102, 1791402873597390291, 
0.6462305188179016, 0.27817726135253906, 0.2595791010889329, 1791402873627250911, 
0.6043736934661865, -0.3180282711982727, 0.2975490574341565, 1791402873657075848, 
0.36331117153167725, 0.21885007619857788, 0.3477121802220624, 1791402873687061089, 
0.4481123685836792, 0.09444630146026611, 0.39338694127453394, 1791402873717019530, 
-0.1253441572189331, 0.09874218702316284, 0.4166625506074957, 1791402873746944190, 
-0.12080544233322144, -0.05289512872695923, 0.4058019821448416, 1791402873777883362, 
-0.08507728576660156, 0.1198420524597168, 0.3968944317964099, 1791402873810385460, 
0.05731123685836792, -0.13267242908477783, 0.48058286263618205, 1791402873837024559, 
-0.36304688453674316, -0.0009840130805969238, 0.4068108702074085, 1791402873866745091, 
-0.5036856532096863, 0.07614386081695557, 0.42044639538343503, 1791402873896681761, 
0.4132513999938965, 0.002847433090209961, 0.44078131715592406, 1791402873926643788, 
-0.3393856883049011, 0.11683428287506104, 0.41230368729345435, 1791402873956729810, 
0.6967732310295105, -0.14190644025802612, 0.40131678215207245, 1791402873986492739, 
-0.4080253839492798, -0.020280063152313232, 0.38093809686055163, 1791402874017887241, 
0.07221317291259766, 0.1774919033050537, 0.364947635195015, 1791402874049569994, 
-0.17518973350524902, 0.138658344745636, 0.42895904671664997, 1791402874076399328, 
-0.2072962522506714, -0.12691283226013184, 0.4047577372995975, 1791402874106342356, 
0.2197338342666626, -0.03324490785598755, 0.4297810152699799, 1791402874135245829, 
-0.061955153942108154, 0.086445152759552, 0.39117592152360864, 1791402874166223415, 
0.04537975788116455, 0.02904057502746582, 0.3870232710299175, 1791402874196128216, 
-0.2634021043777466, 0.06695050001144409, 0.3915515172200486, 1791402874226604538, 
-0.23824846744537354, -0.05936688184738159, 0.3870464192593528, 1791402874258548873, 
-0.015451133251190186, 0.08559411764144897, 0.3922594762664028, 1791402874288755734, 
0.14893358945846558, -0.13846540451049805, 0.40873697543786186, 1791402874325938000, 
-0.16125720739364624, 0.10460835695266724, 0.38844224556470797, 1791402874355989645, 
-0.06824642419815063, 0.013199090957641602, 0.3883966442429676, 1791402874386977451, 
0.015855908393859863, 0.09694546461105347, 0.3921458405792817, 1791402874418335594, 
0.03880077600479126, -0.11803829669952393, 0.4666866287077838, 1791402874444933031, 
0.08398336172103882, -0.04452699422836304, 0.3829064812138851, 1791402874475777251, 
-0.32416844367980957, 0.11824524402618408, 0.40053426980655715, 1791402874505597655, 
-0.1548454761505127, -0.11913615465164185, 0.399638812557186, 1791402874535937447, 
0.30632680654525757, 0.055429279804229736, 0.41124136644882925, 1791402874565483827, 
-0.3784751296043396, -0.1414089798927307, 0.38662087134083456, 1791402874595445562, 
0.47762012481689453, 0.21689951419830322, 0.3841360278829346, 1791402874626621773, 
0.05373489856719971, -0.07071763277053833, 0.378287172237669, 1791402874657929547, 
0.07627177238464355, 0.06908226013183594, 0.4475254692072214, 1791402874684321273, 
0.048627376556396484, 0.058901071548461914, 0.389215053622898, 1791402874715214180, 
-0.18217670917510986, -0.1953335404396057, 0.365822014792178, 1791402874738281018, 
0.10006928443908691, 0.09108221530914307, 0.44211403557464674, 1791402874775293783, 
-0.10968196392059326, -0.08876997232437134, 0.3883752065708797, 1791402874805093140, 
0.014877617359161377, 0.1887837052345276, 0.3888048093269215, 1791402874835013685, 
0.08470773696899414, -0.021299421787261963, 0.38182005417665243, 1791402874866151854, 
0.07395011186599731, 0.03741651773452759, 0.3679208707798963, 1791402874898395764, 
-0.08207160234451294, -0.02947312593460083, 0.4321113239329387, 1791402874925074021, 
0.028162121772766113, 0.27751386165618896, 0.3973886822351322, 1791402874955260346, 
-0.12906241416931152, -0.06239551305770874, 0.4281947484829994, 1791402874984940401, 
-0.015371382236480713, 0.02933710813522339, 0.42137570350822373, 1791402875014928540, 
0.04292494058609009, -0.1528032422065735, 0.4286302164616457, 1791402875044840823, 
0.32708263397216797, -0.07500672340393066, 0.42056688550796933, 1791402875074886200, 
-0.04192560911178589, 0.22981667518615723, 0.3759756724697193, 1791402875106213606, 
0.06495565176010132, -0.0314788818359375, 0.3670691723947948, 1791402875137197436, 
0.06358498334884644, 0.03983873128890991, 0.4305761985873809, 1791402875164709713, 
0.20514994859695435, -0.04336965084075928, 0.41802694551722036, 1791402875193822778, 
0.14275258779525757, 0.04533874988555908, 0.3849846038258807, 1791402875225135862, 
-0.150690495967865, -0.016368508338928223, 0.40088635287258195, 1791402875253813840, 
-0.04312252998352051, 0.12167233228683472, 0.3895251034126155, 1791402875284905983, 
-0.18958914279937744, -0.045503079891204834, 0.4323038319087338, 1791402875314593666, 
0.0963515043258667, -0.08311706781387329, 0.3916358777442862, 1791402875346637257, 
-0.23173975944519043, -0.024997591972351074, 0.41053610921253136, 1791402875376885072, 
0.356709361076355, 0.153461754322052, 0.43340829052066965, 1791402875404847145, 
-0.252930223941803, -0.029372215270996094, 0.41950216814817615, 1791402875434532640, 
0.2557566165924072, -0.0636560320854187, 0.4264967945719206, 1791402875464529748, 
-0.30216968059539795, -0.012218892574310303, 0.4583611757147904, 1791402875493018789, 
0.1434718370437622, 0.13360989093780518, 0.41488591637802735, 1791402875522831798, 
-0.15263253450393677, 0.11872678995132446, 0.3827751580426992, 1791402875554045348, 
-0.0021433234214782715, -0.16368788480758667, 0.38564841061454236, 1791402875585973473, 
-0.13133668899536133, 0.04325854778289795, 0.4327602273885797, 1791402875613726671, 
0.04112643003463745, -0.05255049467086792, 0.3748126397659995, 1791402875643756351, 
0.2659115791320801, -0.06475132703781128, 0.32639216534961063, 1791402875666481387, 
-0.2704530954360962, 0.04154425859451294, 0.4301730954267746, 1791402875703473612, 
0.2592296004295349, 0.08329182863235474, 0.40816326986432416, 1791402875732321878, 
-0.07346862554550171, -0.19147437810897827, 0.3831588227471249, 1791402875763411398, 
0.2966490387916565, 0.019308149814605713, 0.38605459509312423, 1791402875795326327, 
-0.3645896911621094, 0.3667494058609009, 0.38904874864189853, 1791402875826071590, 
0.19078826904296875, -0.08338731527328491, 0.41615640735027515, 1791402875863188586, 
-0.13302326202392578, -0.17814552783966064, 0.40081480510456136, 1791402875893093899, 
-0.06524229049682617, 0.012624502182006836, 0.41677009104581536, 1791402875923865966, 
-0.12206023931503296, 0.2512693405151367, 0.41319744587706925, 1791402875954314718, 
0.09744590520858765, -0.15095263719558716, 0.3701830739900223, 1791402875986736231, 
-0.07636284828186035, 0.1163872480392456, 0.4607839866450038, 1791402876012967853, 
0.23969215154647827, -0.13192600011825562, 0.4248785014783368, 1791402876041827495, 
-0.19482582807540894, -0.009476721286773682, 0.33476283350402286, 1791402876066016213, 
0.11740171909332275, 0.09531903266906738, 0.419773335131618, 1791402876103041479, 
-0.2912648916244507, -0.01602250337600708, 0.40516840354839373, 1791402876132717130, 
-0.11213940382003784, 0.011296749114990234, 0.40185658082519937, 1791402876162755512, 
-0.048595309257507324, -0.01162177324295044, 0.39612035270667334, 1791402876194410090, 
-0.07145410776138306, -0.14662456512451172, 0.4110697940717667, 1791402876224965361, 
-0.17226654291152954, 0.029405295848846436, 0.4154955385228042, 1791402876253150105, 
-1.1230347156524658, -0.27871179580688477, 0.31505334828256176, 1791402876282739675, 
-1.1141009330749512, -0.21200209856033325, 0.16496924642080837, 1791402876304604050, 
-0.885552167892456, -0.1808152198791504, 0.15674086076011762, 1791402876342728636, 
-0.8352838754653931, -0.13946020603179932, 0.09639261321931109, 1791402876372514438, 
-0.10300403833389282, 0.07375609874725342, -0.026407999384759642, 1791402876402302650, 
-0.07022345066070557, -0.21291440725326538, -0.058510832309462, 1791402876434787586, 
0.1718173623085022, 0.08198648691177368, -0.0412818327181771, 1791402876464663138, 
0.16782152652740479, 0.08793675899505615, 0.021170425466757833, 1791402876491951812, 
0.18229132890701294, -0.030075252056121826, 0.02048755903557589, 1791402876521960743, 
-0.15142232179641724, -0.04603385925292969, -0.01958753204250138, 1791402876552089294, 
0.04211997985839844, -0.04962277412414551, -0.01680155828200632, 1791402876581846285, 
-0.09912782907485962, -0.11647427082061768, 0.012971280417951422, 1791402876610804603, 
0.41707247495651245, 0.19498878717422485, 0.014189372221025376, 1791402876642557651, 
0.8610655069351196, 0.35671818256378174, 0.12706026174486573, 1791402876674177237, 
0.9619004130363464, -0.09349143505096436, 0.26497880063086, 1791402876701742721, 
0.9957315921783447, -0.37766939401626587, 0.24277434373268342, 1791402876731589213, 
0.8729573488235474, -0.20721405744552612, 0.23948524666737403, 1791402876755178481, 
0.5483249425888062, 0.6882061958312988, 0.3509617293699693, 1791402876791486333, 
0.7507343888282776, -0.0930892825126648, 0.39699573856642095, 1791402876821555571, 
-0.038294851779937744, -0.21841174364089966, 0.4450992671120384, 1791402876851559963, 
-0.3554651737213135, 0.05995678901672363, 0.4331282793179068, 1791402876882715176, 
-0.053974926471710205, 0.15190327167510986, 0.4133687015039504, 1791402876914634612, 
-0.3544018268585205, -0.3471566438674927, 0.4512925677525284, 1791402876951160067, 
-0.1253342628479004, -0.23474740982055664, 0.40070730973761964, 1791402876981308158, 
0.08431828022003174, 0.23743408918380737, 0.41039484301691387, 1791402877011097282, 
0.06522375345230103, 0.2051193118095398, 0.34454121077076844, 1791402877042739181, 
-0.015252172946929932, -0.09227770566940308, 0.33736824566611284, 1791402877074499555, 
-0.2485000491142273, -0.1598888635635376, 0.4361188202823958, 1791402877110912803, 
0.40607619285583496, 0.3303449749946594, 0.4162514368218983, 1791402877141087774, 
-0.24019503593444824, 0.1172950267791748, 0.4133126347129876, 1791402877170996763, 
-0.01796555519104004, -0.08326756954193115, 0.3866861853681078, 1791402877203437325, 
0.0277707576751709, 0.11007863283157349, 0.4377543583596842, 1791402877232842491, 
0.30383825302124023, 0.07482969760894775, 0.4366557228700682, 1791402877271012199, 
-0.18264484405517578, 0.2517051100730896, 0.3889339778805016, 1791402877300727711, 
0.10481959581375122, -0.19168072938919067, 0.38711083352205133, 1791402877330448657, 
-0.1501876711845398, 0.13833564519882202, 0.3794750202002411, 1791402877362238578, 
-0.03705936670303345, 0.05776935815811157, 0.40063584227608373, 1791402877392901002, 
-0.02537822723388672, 0.008056044578552246, 0.4287046164295797, 1791402877420450952, 
-0.19065284729003906, 0.12179028987884521, 0.3444370633813719, 1791402877442404995, 
0.13868457078933716, 0.08316898345947266, 0.3786424768288616, 1791402877472742076, 
-0.17978662252426147, -0.12948060035705566, 0.4289252980914313, 1791402877500218369, 
0.406613826751709, 0.0058397650718688965, 0.3924329674812394, 1791402877530182990, 
0.16823571920394897, 0.041803598403930664, 0.38779597942927024, 1791402877560067203, 
-0.07713311910629272, 0.07035636901855469, 0.371122973611058, 1791402877590062009, 
-0.20572692155838013, -0.044337451457977295, 0.39448368136313877, 1791402877619974393, 
-0.15963637828826904, -0.17510724067687988, 0.3825729042225313, 1791402877651417605, 
0.06786829233169556, 0.27374333143234253, 0.3799540313015068, 1791402877682502249, 
0.03675854206085205, -0.07134228944778442, 0.4305657594230437, 1791402877710155320, 
0.14941269159317017, 0.12401509284973145, 0.40312170624794064, 1791402877739757377, 
0.13098162412643433, -0.16999810934066772, 0.39343449930182556, 1791402877769752552, 
0.10465633869171143, 0.19174247980117798, 0.3972521670228407, 1791402877799659575, 
0.17623788118362427, 0.0800979733467102, 0.3712010446563906, 1791402877829752570, 
-0.32894569635391235, -0.09135711193084717, 0.38453164683480373, 1791402877859774253, 
-0.32306551933288574, -0.19997364282608032, 0.3921226791882489, 1791402877890288404, 
0.5889893174171448, 0.23077863454818726, 0.37234891596444375, 1791402877922535225, 
-0.17779844999313354, -0.0007209181785583496, 0.4156835210985399, 1791402877959368620, 
-0.18351829051971436, 0.04743480682373047, 0.40103532045668167, 1791402877989284934, 
-0.14442241191864014, -0.16417604684829712, 0.42390019913602184, 1791402878019253527, 
-0.22940057516098022, 0.053432345390319824, 0.4027495293435625, 1791402878050200803, 
-0.2067853808403015, 0.07495570182800293, 0.37929736267147973, 1791402878082164264, 
0.19858205318450928, 0.1385948657989502, 0.4577684505243288, 1791402878109091288, 
0.2353346347808838, -0.09713244438171387, 0.4125817098624677, 1791402878139445601, 
0.0626944899559021, 0.02624744176864624, 0.36329549979083997, 1791402878163137882, 
0.040230631828308105, 0.14680838584899902, 0.447006849515857, 1791402878199093883, 
-0.19893866777420044, 0.09248912334442139, 0.40624343198608065, 1791402878228858519, 
-0.20614629983901978, -0.13313770294189453, 0.4073435254008639, 1791402878258883039, 
0.14299070835113525, -0.09846341609954834, 0.3750854835833434, 1791402878290582824, 
-0.09501343965530396, 0.13821464776992798, 0.3675291998962172, 1791402878321511832, 
-0.02098691463470459, 0.15683460235595703, 0.4384718790267622, 1791402878347831156, 
-0.14111506938934326, -0.21492338180541992, 0.40931504758121945, 1791402878378582488, 
0.12463891506195068, 0.02959287166595459, 0.3759886603957565, 1791402878401021683, 
-0.418102502822876, 0.04478895664215088, 0.44520168914225927, 1791402878438495430, 
0.3831631541252136, -0.005469918251037598, 0.40358102066054385, 1791402878468455647, 
-0.30638188123703003, -0.06266093254089355, 0.39657811587962216, 1791402878498705875, 
0.21643513441085815, 0.1045922040939331, 0.3913118125944618, 1791402878530165059, 
0.28489071130752563, 0.005304694175720215, 0.42896612429737374, 1791402878558318908, 
0.10817432403564453, 0.027938544750213623, 0.39699303970956396, 1791402878588229563, 
-0.03911870718002319, -0.11994326114654541, 0.4356716646432214, 1791402878618225763, 
-0.23005181550979614, -0.029001832008361816, 0.4326259205704986, 1791402878648226520, 
-0.020274579524993896, -0.07392019033432007, 0.3974538175161387, 1791402878678091870, 
-0.0235406756401062, 0.03921765089035034, 0.37278068386596275, 1791402878708094300, 
-0.18827950954437256, 0.07230609655380249, 0.3818426283443224, 1791402878738750953, 
0.1813274621963501, -0.08641707897186279, 0.36372379688443257, 1791402878770424877, 
0.21369975805282593, -0.14581453800201416, 0.43698229134161126, 1791402878797893977, 
-0.02795463800430298, 0.27271080017089844, 0.405950628483718, 1791402878828005233, 
-0.044207096099853516, 0.12354207038879395, 0.3969017496284514, 1791402878857769587, 
-0.174146831035614, -0.27434295415878296, 0.4034301235533662, 1791402878887036222, 
0.2625049352645874, -0.04823029041290283, 0.3975797905215086, 1791402878917743720, 
0.11789488792419434, 0.23833996057510376, 0.40003274180255166, 1791402878947625320, 
-0.059670984745025635, 0.17879360914230347, 0.39599230697447146, 1791402878977400855, 
-0.24124622344970703, -0.3927047848701477, 0.3699974285288166, 1791402879010197990, 
0.5046206712722778, -0.02708578109741211, 0.4328118119565507, 1791402879037880004, 
-0.5524441003799438, 0.10973668098449707, 0.38185970334226654, 1791402879067339214, 
-0.07797515392303467, -0.022460520267486572, 0.3865811289126609, 1791402879097355240, 
0.05804687738418579, 0.06509828567504883, 0.3837857790671193, 1791402879127276785, 
0.053230464458465576, 0.02148914337158203, 0.39011275345850654, 1791402879157185061, 
0.05674511194229126, 0.05157405138015747, 0.39184028569012064, 1791402879187184854, 
0.18217027187347412, 0.1695147156715393, 0.3929013724730722, 1791402879218463326, 
-0.19382381439208984, -0.20629948377609253, 0.3883101320046527, 1791402879250712432, 
-0.07423025369644165, -0.029104948043823242, 0.49249674655493547, 1791402879277063742, 
-0.09901976585388184, 0.21035009622573853, 0.41791547126898415, 1791402879306925516, 
-0.2765994071960449, -0.0010710358619689941, 0.40477623352985015, 1791402879336997373, 
0.2596759796142578, -0.11908155679702759, 0.4021293436880137, 1791402879366937371, 
0.03986048698425293, -0.09198689460754395, 0.4139005911528712, 1791402879396743224, 
0.29796260595321655, 0.13509517908096313, 0.3814134761812686, 1791402879427097783, 
-0.19865775108337402, 0.15443629026412964, 0.3700251472126348, 1791402879458429181, 
0.24203497171401978, -0.12208312749862671, 0.390140054868279, 1791402879489070766, 
-0.36911535263061523, -0.15080547332763672, 0.4660402302161885, 1791402879515815302, 
-0.07557612657546997, 0.2487519383430481, 0.3798894434378804, 1791402879546559367, 
0.10813301801681519, 0.11526954174041748, 0.38459779721419457, 1791402879576503080, 
-0.25305086374282837, -0.1331886649131775, 0.3888393986698371, 1791402879605811270, 
-0.3520280122756958, -0.16138631105422974, 0.3845402077210056, 1791402879636556044, 
0.009121835231781006, 0.30371344089508057, 0.4380253930728104, 1791402879666476379, 
-0.060720086097717285, -0.027918696403503418, 0.4199900640534857, 1791402879698653018, 
0.28032010793685913, -0.11137586832046509, 0.4291328643897785, 1791402879729096496, 
0.1903383731842041, -0.03815746307373047, 0.46094463753449366, 1791402879756253071, 
0.012668848037719727, 0.12397950887680054, 0.38622806365377105, 1791402879786270151, 
-0.14310163259506226, -0.10459762811660767, 0.40365931478003364, 1791402879816042888, 
-0.03484904766082764, -0.12256050109863281, 0.4057302194925605, 1791402879846122929, 
-0.008819997310638428, 0.02870798110961914, 0.40637410529172097, 1791402879876049062, 
0.13239985704421997, 0.23323071002960205, 0.38947779267616384, 1791402879906165452, 
-0.03311598300933838, -0.038062095642089844, 0.3658365764200531, 1791402879938182381, 
0.2049533724784851, -0.11297738552093506, 0.44269903913266984, 1791402879965777371, 
0.17283004522323608, -0.02358829975128174, 0.3999820934306134, 1791402879995956237, 
-0.1767938733100891, 0.24782341718673706, 0.3987344249230642, 1791402880025670598, 
0.012750446796417236, -0.06056511402130127, 0.38908053013077537, 1791402880055619656, 
1.2755393981933594e-05, -0.1934146285057068, 0.39143161860530795, 1791402880085577619, 
0.20420092344284058, 0.013166248798370361, 0.41439244517656393, 1791402880115486065, 
-0.4030267000198364, 0.32240623235702515, 0.3963749820804027, 1791402880146610431, 
0.4376407265663147, -0.23199951648712158, 0.3815600629303844, 1791402880178201734, 
-0.22314584255218506, -0.14018559455871582, 0.4297891930003255, 1791402880205377877, 
0.2019481658935547, 0.23010647296905518, 0.38884773288289576, 1791402880235317221, 
-0.11143630743026733, 0.12794631719589233, 0.3815564234760234, 1791402880265185694, 
-0.3063042163848877, -0.3533657193183899, 0.39646764383027255, 1791402880295151873, 
0.3561285734176636, 0.16985058784484863, 0.38810289096697687, 1791402880325153106, 
-0.11435610055923462, 0.10046225786209106, 0.3852959307321826, 1791402880355193077, 
0.01848548650741577, 0.12456017732620239, 0.3629692630136926, 1791402880386192262, 
-0.12834382057189941, -0.24384278059005737, 0.3801471163352715, 1791402880417213876, 
0.07107263803482056, -0.009377062320709229, 0.43986870537209577, 1791402880445238102, 
-0.3138355016708374, 0.14553004503250122, 0.4142086133291681, 1791402880475012675, 
-0.010236263275146484, 0.1399642825126648, 0.3543095400238682, 1791402880498488059, 
-0.04162120819091797, -0.16745918989181519, 0.4723675601202051, 1791402880535042094, 
0.1673395037651062, 0.11237525939941406, 0.42336291921882235, 1791402880564990224, 
-0.05554550886154175, 0.18441790342330933, 0.400271381195815, 1791402880594905355, 
0.23483139276504517, -0.1931018829345703, 0.3919146235122321, 1791402880626203465, 
-0.31562644243240356, -0.08563369512557983, 0.4112107213705206, 1791402880657003556, 
0.030178725719451904, -0.05788552761077881, 0.4391027901404332, 1791402880693820249, 
-0.06215280294418335, 0.35600942373275757, 0.36333232030245044, 1791402880725071488, 
-0.09982913732528687, -0.17322319746017456, 0.4186958532251634, 1791402880753831897, 
0.19140011072158813, -0.07274442911148071, 0.3824418177684088, 1791402880787149268, 
-0.19452083110809326, 0.10721653699874878, 0.41369313421092113, 1791402880816711101, 
0.04641115665435791, 0.08779650926589966, 0.44067787912493445, 1791402880843982791, 
-0.40096163749694824, -0.15061360597610474, 0.3873426928555781, 1791402880874747941, 
0.19718831777572632, 0.06763744354248047, 0.4004507877679387, 1791402880904071688, 
-0.3380361795425415, 0.16906386613845825, 0.38985367704445173, 1791402880934069648, 
0.3499652147293091, -0.02179849147796631, 0.39608969904474156, 1791402880963955826, 
0.05608934164047241, -0.21280771493911743, 0.41734987096876386, 1791402880994533685, 
0.16492444276809692, 0.17551636695861816, 0.37771308554264393, 1791402881026534440, 
-0.0953935980796814, 0.21097642183303833, 0.42030711580300834, 1791402881063754193, 
-0.10315060615539551, -0.010106325149536133, 0.39594200056102064, 1791402881093728553, 
-0.015028893947601318, -0.06109875440597534, 0.39015089651377977, 1791402881123844472, 
0.12637025117874146, 0.1263260841369629, 0.4117847786872566, 1791402881153452449, 
-0.23204749822616577, 0.1274389624595642, 0.37866515715409577, 1791402881186272207, 
-0.10491311550140381, -0.03288072347640991, 0.4599346982076523, 1791402881213557997, 
0.2663124203681946, -0.15045297145843506, 0.42110426480889396, 1791402881243494703, 
-0.029162049293518066, 0.325070321559906, 0.40444487219538316, 1791402881273446297, 
0.22531849145889282, -0.08146357536315918, 0.3986916363660267, 1791402881303509100, 
-0.2010985016822815, -0.12180769443511963, 0.4003520363223393, 1791402881333317454, 
0.08444809913635254, -0.06168323755264282, 0.40044107703141596, 1791402881363448698, 
-0.25206518173217773, 0.3377772569656372, 0.3784671389453862, 1791402881394473717, 
-0.33775413036346436, -0.09601902961730957, 0.40602001113612973, 1791402881433130241, 
-0.2502652406692505, -0.2883329391479492, 0.4143089143335874, 1791402881463059915, 
0.18117398023605347, 0.3653296232223511, 0.39150096584276783, 1791402881493079284, 
-0.024179697036743164, 0.22572088241577148, 0.3643007411517065, 1791402881522956146, 
0.0022256970405578613, -0.19204938411712646, 0.3709566863312508, 1791402881554785730, 
0.06775319576263428, -0.22185862064361572, 0.40670656548546824, 1791402881586280987, 
-0.10710835456848145, 0.34304749965667725, 0.4557842019486297, 1791402881623169321, 
-0.7289779186248779, -0.075070321559906, 0.4249127327999507, 1791402881652728434, 
-0.8793755769729614, -0.43843144178390503, 0.3652735000134204, 1791402881683187839, 
-1.3419365882873535, -0.0784156322479248, 0.19420585641644197, 1791402881714489299, 
-0.6837921142578125, -0.16083264350891113, 0.13872124048199652, 1791402881745368761, 
-0.937731921672821, -0.1965053677558899, 0.11227385160840431, 1791402881782462269, 
-0.2364245057106018, -0.1507875919342041, 0.04734276931597638, 1791402881812392754, 
-0.012604355812072754, 0.12513834238052368, -0.02169818609684003, 1791402881842505842, 
0.1401793360710144, -0.19295352697372437, -0.03595423707996573, 1791402881874874246, 
0.07957154512405396, -0.1907869577407837, -0.03388415725313245, 1791402881903891795, 
0.29759764671325684, 0.0688554048538208, -0.00671406140480228, 1791402881942291707, 
-0.07709568738937378, 0.0222741961479187, 0.016836213981773342, 1791402881972189217, 
-0.0994715690612793, 0.008256673812866211, -0.010175732691494813, 1791402882003061510, 
-0.07140552997589111, -0.17099398374557495, -0.0012069751541798957, 1791402882034416017, 
0.5806183815002441, 0.1477687954902649, 0.03710680795307718, 1791402882062014861, 
1.4627023935317993, 0.3613249659538269, 0.19527339274557778, 1791402882091936576, 
0.47942250967025757, 0.040372252464294434, 0.21693902771777696, 1791402882122114117, 
1.0262147188186646, -0.6482325196266174, 0.2437579610460301, 1791402882151779165, 
0.2896500825881958, 0.22640079259872437, 0.31058028761688555, 1791402882181774696, 
0.2772982120513916, 0.3317941427230835, 0.3442451273563791, 1791402882212231499, 
0.4969702363014221, 0.07579278945922852, 0.40562555268174716, 1791402882240799514, 
-0.15228503942489624, -0.10497355461120605, 0.38731700022058924, 1791402882274750522, 
-0.02520376443862915, -0.1499963402748108, 0.47325022438014, 1791402882301580296, 
-0.2542858123779297, 0.43185532093048096, 0.4364798927367755, 1791402882331546721, 
0.03167462348937988, -0.15032178163528442, 0.37070994438458066, 1791402882355175502, 
-0.3791818618774414, 0.000102996826171875, 0.4833410046993219, 1791402882381459947, 
0.31951308250427246, -0.07520002126693726, 0.3913090834450024, 1791402882411340925, 
-0.38047629594802856, 0.019707858562469482, 0.3700109944413711, 1791402882441327093, 
0.025991737842559814, 0.15357130765914917, 0.39937641677885355, 1791402882471206954, 
0.16504335403442383, -0.10381382703781128, 0.40755280379771586, 1791402882501333934, 
-0.13380002975463867, 4.649162292480469e-06, 0.4000256205575282, 1791402882531152023, 
-0.5636488199234009, 0.14723271131515503, 0.38704158933351634, 1791402882561805755, 
0.1283016800880432, 0.08539754152297974, 0.36580288253335663, 1791402882594498283, 
-0.37869489192962646, 0.03920382261276245, 0.4418854380081917, 1791402882630908855, 
-0.03304034471511841, 0.02342832088470459, 0.39970346514817795, 1791402882660911486, 
-0.062172532081604004, 0.014352142810821533, 0.39747582378876833, 1791402882690854693, 
0.25231778621673584, -0.1483607292175293, 0.382037570840769, 1791402882721802658, 
0.0940902829170227, 0.12821823358535767, 0.38039899396714966, 1791402882753605611, 
0.11800432205200195, 0.0761060118675232, 0.4680906972101957, 1791402882780106449, 
-0.0065503716468811035, 0.006813108921051025, 0.39797406864411794, 1791402882810585353, 
-0.03341400623321533, -0.21402758359909058, 0.3746405754591686, 1791402882831986829, 
-0.27871161699295044, 0.20123863220214844, 0.42495789401725015, 1791402882860755479, 
-0.005107223987579346, 0.15003353357315063, 0.4092534992573907, 1791402882890565566, 
-0.29232048988342285, -0.16068601608276367, 0.4137354339018977, 1791402882920565372, 
-0.06682652235031128, -0.04179590940475464, 0.3913459802169771, 1791402882950653966, 
-0.3847488760948181, 0.28403955698013306, 0.3888953600718571, 1791402882980524098, 
0.44531500339508057, 0.06589895486831665, 0.3850295226521566, 1791402883010785107, 
-0.2000635862350464, 0.0038727521896362305, 0.3882136999164266, 1791402883050458015, 
0.4550817608833313, 0.07111126184463501, 0.40236188423131697, 1791402883080338428, 
-0.2563202977180481, -0.15154868364334106, 0.4195001295435315, 1791402883110201760, 
0.1983998417854309, 0.02442920207977295, 0.41622712713745347, 1791402883140019651, 
-0.08838164806365967, 0.20429331064224243, 0.36808764165319346, 1791402883170766756, 
-0.3606228828430176, -0.16844111680984497, 0.35291298584971287, 1791402883202907397, 
0.05586874485015869, 0.05911576747894287, 0.4406380926746868, 1791402883239854466, 
-0.20897126197814941, 0.10535216331481934, 0.40493489290774287, 1791402883269850922, 
0.03490549325942993, 0.007388710975646973, 0.4061867236924158, 1791402883299725691, 
-0.14279693365097046, -0.004163026809692383, 0.422883429265974, 1791402883329415414, 
0.03243285417556763, -0.0807654857635498, 0.35689349354428757, 1791402883363105679, 
-0.08170807361602783, 0.33004647493362427, 0.4440776865179017, 1791402883390433883, 
0.1616654396057129, -0.1236373782157898, 0.4267178076074453, 1791402883420195255, 
0.07032012939453125, -0.027944445610046387, 0.4344544949320149, 1791402883450005535, 
-0.14998948574066162, -0.03944438695907593, 0.401711723254211, 1791402883480014351, 
0.19543558359146118, 0.11141431331634521, 0.4130051717384016, 1791402883509977311, 
-0.19472897052764893, -0.19285058975219727, 0.40477779990518425, 1791402883540003187, 
0.5846721529960632, 0.16937392950057983, 0.3873012639197285, 1791402883570411169, 
-0.07543694972991943, 0.3346009850502014, 0.3505124816256384, 1791402883602844533, 
-0.28833603858947754, -0.17024898529052734, 0.4236176486246762, 1791402883639371857, 
-0.011564373970031738, 0.1613863706588745, 0.4109275762707833, 1791402883669223971, 
-0.42992132902145386, 0.0407986044883728, 0.41030591004077027, 1791402883699041880, 
0.20591378211975098, -0.06121349334716797, 0.37372040639370463, 1791402883731912101, 
-0.2657870054244995, -0.10994559526443481, 0.40212453431096096, 1791402883761675996, 
0.29382991790771484, 0.21572136878967285, 0.4234091852897564, 1791402883798880030, 
0.05415886640548706, -0.18816864490509033, 0.40253146037184684, 1791402883829014262, 
0.1627422571182251, -0.07232397794723511, 0.42795753777669937, 1791402883857852700, 
-0.06621688604354858, 0.22889435291290283, 0.36710738936993315, 1791402883890602901, 
0.12863105535507202, 0.08235955238342285, 0.41424466195863074, 1791402883919024359, 
0.036776840686798096, -0.21081793308258057, 0.3990407835806585, 1791402883948611486, 
0.09662061929702759, 0.16233950853347778, 0.38860430139213165, 1791402883978734671, 
-0.17704957723617554, 0.13351178169250488, 0.3978674865847342, 1791402884008525459, 
-0.25249457359313965, -0.027582526206970215, 0.40903036928719266, 1791402884038549008, 
0.5711004137992859, -0.09078246355056763, 0.4251627611916244, 1791402884068381609, 
-0.4560522437095642, 0.07544809579849243, 0.4369982767586346, 1791402884098568075, 
0.2789151072502136, 0.09972876310348511, 0.39834654020472127, 1791402884130474187, 
-0.05194509029388428, -0.11331045627593994, 0.3996209624980505, 1791402884158250309, 
-0.26193439960479736, 0.08147746324539185, 0.37162631440474914, 1791402884188275173, 
-0.2776371240615845, -0.07031518220901489, 0.40918560125440107, 1791402884218064048, 
-0.3072688579559326, -0.007603049278259277, 0.41674664195609157, 1791402884248071854, 
0.19468438625335693, 0.1676483154296875, 0.39389676275876956, 1791402884278367239, 
-0.3097245693206787, -0.0359879732131958, 0.39750289595018246, 1791402884307935461, 
0.1348392367362976, -0.13255304098129272, 0.3834210869708096, 1791402884338453165, 
-0.23175495862960815, 0.017421364784240723, 0.35573880749249165, 1791402884371343759, 
0.16588449478149414, 0.1160968542098999, 0.4695726245739136, 1791402884407770904, 
-0.0013544559478759766, 0.060059189796447754, 0.4175636375305712, 1791402884437724873, 
-0.20130258798599243, -0.1804935336112976, 0.40801461432303965, 1791402884466801626, 
-0.12223309278488159, 0.1565796136856079, 0.37006900109352125, 1791402884498875622, 
-0.27126848697662354, -0.07820838689804077, 0.4021231906380452, 1791402884530638704, 
0.4624903202056885, -0.021669745445251465, 0.44815376060484774, 1791402884557619143, 
-0.41137051582336426, 0.08373832702636719, 0.38968053698802896, 1791402884587425406, 
-0.38901203870773315, -0.14335596561431885, 0.40326648790045505, 1791402884617345712, 
-0.1685088872909546, 0.07431095838546753, 0.3920026521666907, 1791402884647326339, 
-1.2700258493423462, -0.0627707839012146, 0.3634351921976055, 1791402884677359683, 
-0.9847385883331299, -0.021729588508605957, 0.26094515436905114, 1791402884707223418, 
-0.5385072231292725, -0.3378215432167053, 0.19831830669513675, 1791402884738383905, 
0.8259642124176025, 0.12375426292419434, 0.2027283630104536, 1791402884770848727, 
1.6056653261184692, 0.4027354121208191, 0.3540671282330713, 1791402884797164849, 
0.6817405223846436, 0.1987447738647461, 0.41600225951093484, 1791402884836988183, 
0.2918044924736023, -0.1207197904586792, 0.4283879219807732, 1791402884867106602, 
-0.43767762184143066, -0.11455434560775757, 0.38367514033117506, 1791402884898494619, 
