acc_x, acc_y, angular_z, stamp, 
0.001235365867614746, 0.013712763786315918, 7.96213890885963e-06, 1791402796718402657, 
0.013878285884857178, -0.03126847743988037, 9.147698283767884e-06, 1791402796745687382, 
0.008439481258392334, 0.013525605201721191, 8.235632632808634e-06, 1791402796775767737, 
0.0513453483581543, -0.008132874965667725, 8.271003615713907e-06, 1791402796805494327, 
0.004390597343444824, 0.018703460693359375, 8.15103022988946e-06, 1791402796835429996, 
-0.0031154751777648926, -0.0046294331550598145, 7.885469743111537e-06, 1791402796865428965, 
0.011064469814300537, -0.002876758575439453, 7.789691107977947e-06, 1791402796895318553, 
-0.008758068084716797, 0.007893264293670654, 7.471274344775443e-06, 1791402796926232709, 
0.0019144415855407715, -0.011971116065979004, 7.067001447414773e-06, 1791402796958124551, 
0.007384240627288818, 0.020337462425231934, 8.222482869259748e-06, 1791402796985534738, 
-0.007024526596069336, 0.009534955024719238, 7.621425265926351e-06, 1791402797015106600, 
0.0019614696502685547, 0.005851686000823975, 7.514187719295082e-06, 1791402797045100443, 
0.019642889499664307, -0.010337471961975098, 7.516789446342581e-06, 1791402797075083878, 
-0.00554269552230835, -0.011987149715423584, 7.48571311547e-06, 1791402797104942981, 
-0.00910419225692749, 0.0007926225662231445, 7.411810345923041e-06, 1791402797135099936, 
0.007082045078277588, -0.002728283405303955, 7.2342314262323915e-06, 1791402797166254651, 
0.023263216018676758, 0.026150166988372803, 7.078012144998116e-06, 1791402797198097034, 
-0.008944988250732422, -0.034791529178619385, 8.105405505517346e-06, 1791402797235095483, 
-0.008730590343475342, -0.011217176914215088, 7.671134747204854e-06, 1791402797264718674, 
-0.004936337471008301, -0.009114980697631836, 7.957136897445318e-06, 1791402797293979292, 
0.02386343479156494, -0.01796591281890869, 7.225809319005391e-06, 1791402797326459030, 
0.000541985034942627, -0.0068857669830322266, 7.55525456523365e-06, 1791402797357275954, 
0.005907416343688965, -0.00116044282913208, 8.310523828457038e-06, 1791402797394705646, 
-0.015662789344787598, 0.006152510643005371, 7.850870283333011e-06, 1791402797424362215, 
0.005949079990386963, 0.020387470722198486, 7.75526371567819e-06, 1791402797454624492, 
-0.008523404598236084, 0.005845963954925537, 7.471888918136086e-06, 1791402797486034512, 
0.016573846340179443, -0.0051705241203308105, 7.661934911990749e-06, 1791402797516665485, 
-0.01215052604675293, 0.0035735368728637695, 8.527517125611323e-06, 1791402797544187350, 
-0.017265141010284424, 0.010480940341949463, 7.831791296833413e-06, 1791402797584380710, 
0.015295803546905518, -0.009470701217651367, 8.270203122368382e-06, 1791402797614110167, 
0.0010892748832702637, -0.016812145709991455, 7.56002973113321e-06, 1791402797646632426, 
-0.016832470893859863, 0.0063973069190979, 8.841695793047889e-06, 1791402797683920478, 
-0.030934393405914307, -0.004435479640960693, 8.409819928876761e-06, 1791402797714042552, 
0.006994485855102539, 0.009761273860931396, 8.572056117517024e-06, 1791402797744029222, 
0.019556820392608643, -0.00844484567642212, 8.508596674809867e-06, 1791402797774458718, 
-0.002157866954803467, 0.020138323307037354, 8.121474007853094e-06, 1791402797806109370, 
-0.012992382049560547, 0.001987159252166748, 9.24618494549226e-06, 1791402797833708551, 
-0.0041348934173583984, 0.007289230823516846, 8.389448169320334e-06, 1791402797863682150, 
0.006560623645782471, -0.001753389835357666, 8.250720662823466e-06, 1791402797893708045, 
0.018848657608032227, -0.00177764892578125, 8.190504027348107e-06, 1791402797923499704, 
0.025802791118621826, 0.012617111206054688, 7.888410077061466e-06, 1791402797953487547, 
0.012929022312164307, 0.009022951126098633, 7.782630258304328e-06, 1791402797983404059, 
0.009174525737762451, -0.007226884365081787, 7.296504707409682e-06, 1791402798014547704, 
0.0037086009979248047, 0.001613318920135498, 7.121335745045719e-06, 1791402798046195743, 
0.0036093592643737793, 0.0014159679412841797, 8.23383853264944e-06, 1791402798073567544, 
0.01227802038192749, -0.0005611777305603027, 7.46985191148556e-06, 1791402798103489107, 
-0.011136293411254883, 0.004753470420837402, 7.317984922342034e-06, 1791402798133267861, 
-0.0021072030067443848, 0.028045833110809326, 7.339093205043044e-06, 1791402798163214788, 
0.015970706939697266, 0.006321370601654053, 7.443631082100603e-06, 1791402798193241695, 
-0.0038224458694458008, -0.0010498762130737305, 7.477805814398338e-06, 1791402798223131477, 
-0.03750663995742798, -0.024529993534088135, 7.413734001967088e-06, 1791402798254033543, 
-0.021088719367980957, 0.013022840023040771, 7.486303459894167e-06, 1791402798285631863, 
-0.02257293462753296, 0.00024759769439697266, 9.028695825447361e-06, 1791402798312864184, 
0.004701137542724609, 0.007111966609954834, 8.487718976603505e-06, 1791402798342710609, 
-0.0023137331008911133, 0.019419550895690918, 8.573402865030878e-06, 1791402798372693762, 
0.004973709583282471, 0.004730343818664551, 8.656050627763356e-06, 1791402798402606090, 
0.0014721155166625977, -0.006245851516723633, 8.602820619534705e-06, 1791402798432703656, 
0.0051223039627075195, -0.002762019634246826, 8.684006120629255e-06, 1791402798462520021, 
0.0015406608581542969, 0.009759962558746338, 8.462589555612045e-06, 1791402798493116523, 
0.02664560079574585, -0.0136030912399292, 8.042977751425063e-06, 1791402798525540737, 
-0.029053330421447754, -0.004538834095001221, 9.323270934706252e-06, 1791402798562303697, 
-0.009168386459350586, -0.006292879581451416, 8.527639543678825e-06, 1791402798592447927, 
0.005344748497009277, -0.007953047752380371, 8.75462638595358e-06, 1791402798622236195, 
0.003754556179046631, 0.008342266082763672, 8.21289869956436e-06, 1791402798654442912, 
0.005567073822021484, -0.004126906394958496, 9.550298126267908e-06, 1791402798682139405, 
-0.03203415870666504, 0.0013576149940490723, 8.575477449585744e-06, 1791402798712332474, 
0.00212937593460083, -0.011142432689666748, 7.83060075267097e-06, 1791402798734930600, 
0.016679584980010986, 0.006938159465789795, 9.612933630138688e-06, 1791402798771941793, 
-0.00834876298904419, -0.005557596683502197, 8.953339613394209e-06, 1791402798801900570, 
0.013155460357666016, -0.0019812583923339844, 8.851372515358934e-06, 1791402798831993989, 
0.00041180849075317383, -0.023469507694244385, 8.389185379304376e-06, 1791402798862856983, 
-0.0016488432884216309, 0.0017365217208862305, 8.103882415118174e-06, 1791402798894116670, 
-0.004251718521118164, -0.008234858512878418, 0.0002634787745550212, 1791402798920810833, 
0.377174973487854, 0.126895010471344, 0.00911913524108593, 1791402798951613045, 
1.8410364389419556, 0.3808478116989136, 0.11443493645149594, 1791402798981864146, 
0.4945330023765564, 0.0278356671333313, 0.16391629178590775, 1791402799011601644, 
1.213368535041809, -0.6294112801551819, 0.1702362009437766, 1791402799041404719, 
0.5920945405960083, 0.3718588352203369, 0.19247179721464913, 1791402799071545265, 
0.4401819705963135, 0.6367887854576111, 0.1964275774780998, 1791402799102191793, 
0.6284383535385132, -0.5342654585838318, 0.27179936541782485, 1791402799134409513, 
0.9023805260658264, 0.27770012617111206, 0.3905072093687533, 1791402799171223242, 
0.23249733448028564, -0.15718424320220947, 0.41521589563240935, 1791402799201181143, 
0.08460909128189087, 0.47117072343826294, 0.4183672177671865, 1791402799231166539, 
0.230618417263031, -0.19255173206329346, 0.43981290981703813, 1791402799262233483, 
-0.599086344242096, -0.30942994356155396, 0.3990919733262838, 1791402799294131463, 
0.31762880086898804, -0.550088107585907, 0.44474703863300413, 1791402799331118766, 
0.06003892421722412, 0.7343422770500183, 0.39578442379694256, 1791402799361190240, 
-0.37036436796188354, -0.03437703847885132, 0.385295594567746, 1791402799391130360, 
0.3850950598716736, -0.39920228719711304, 0.37374450084564115, 1791402799422376499, 
-0.3037017583847046, 0.7194496393203735, 0.39602668733311486, 1791402799453681181, 
0.05404782295227051, -0.3752785325050354, 0.43226727174952734, 1791402799481268441, 
0.16431695222854614, -0.08823275566101074, 0.38901094448867996, 1791402799510870345, 
-0.22573399543762207, 0.24778330326080322, 0.35772013670932856, 1791402799533335122, 
0.08608061075210571, -0.35475730895996094, 0.44247866685352133, 1791402799570867518, 
-0.5394515991210938, 0.06465816497802734, 0.41628074702841134, 1791402799600875231, 
0.18403005599975586, 0.3612295389175415, 0.40281251257437795, 1791402799630878569, 
-0.0035989880561828613, -0.3237086534500122, 0.3737364179450381, 1791402799662245335, 
0.2387717366218567, 0.22792500257492065, 0.36323106867731136, 1791402799692700091, 
-0.08870583772659302, 0.09509104490280151, 0.4317188582346841, 1791402799730874546, 
0.19777131080627441, 0.23739635944366455, 0.4357621312594147, 1791402799760670779, 
-0.19544976949691772, -0.15950602293014526, 0.4255288752033861, 1791402799790770984, 
-0.1072009801864624, 0.09110468626022339, 0.3929576511022361, 1791402799822611464, 
0.19301974773406982, 0.2856917381286621, 0.43872056991006486, 1791402799850090556, 
-0.3737568259239197, -0.09353947639465332, 0.38538409274946306, 1791402799879999231, 
0.3557435870170593, 0.05465203523635864, 0.38392532520488726, 1791402799909994461, 
-0.7008102536201477, -0.2306615114212036, 0.39350481695550327, 1791402799939899916, 
0.4509126543998718, 0.2309889793395996, 0.3872070150138163, 1791402799969785896, 
-0.6086958646774292, 0.3032301664352417, 0.4127144640206906, 1791402799999708113, 
0.29034584760665894, -0.22102540731430054, 0.4105051652232416, 1791402800030536188, 
0.06379669904708862, -0.04804116487503052, 0.3951353433808311, 1791402800062171013, 
0.1666765809059143, 0.2911214828491211, 0.44310882733430806, 1791402800089917847, 
-0.050308823585510254, 0.017963290214538574, 0.38226689558759425, 1791402800118677213, 
-0.2929493188858032, 0.29830402135849, 0.30434902917572704, 1791402800142949304, 
-0.2577505111694336, 0.3229755759239197, 0.4347684857064648, 1791402800179418521, 
-0.23892360925674438, -0.15414196252822876, 0.4262967042688186, 1791402800209339075, 
0.0768011212348938, 0.011784017086029053, 0.4361465045832885, 1791402800239507743, 
-0.04677003622055054, 0.6275646090507507, 0.4119657815958199, 1791402800270603755, 
0.10398674011230469, -0.43312251567840576, 0.3890947561424673, 1791402800302185748, 
-0.6982101202011108, 0.04589128494262695, 0.44331975415949426, 1791402800329428503, 
-0.07473379373550415, 0.47234469652175903, 0.39976032645960147, 1791402800359040914, 
-1.8473254442214966, -0.7225742936134338, 0.34253578226428494, 1791402800388995476, 
-0.22005295753479004, 0.42716991901397705, 0.2286366930003046, 1791402800418990900, 
-0.3073216676712036, 0.24180233478546143, 0.24356030534963544, 1791402800448944693, 
1.24855637550354, -0.26503312587738037, 0.258724296859095, 1791402800479029937, 
1.1942167282104492, 0.23273247480392456, 0.3450625474820906, 1791402800510470287, 
0.2157449722290039, 0.5144650340080261, 0.41083527376407214, 1791402800541727876, 
0.570345401763916, -0.5361469984054565, 0.4742245753815185, 1791402800568759140, 
0.19575947523117065, 0.08093863725662231, 0.39679579059845416, 1791402800598666591, 
-0.8039771318435669, 0.5907112956047058, 0.4046977751000533, 1791402800628619956, 
0.8211847543716431, -0.20311391353607178, 0.3882235630401775, 1791402800658514395, 
-0.7418909072875977, 0.09979826211929321, 0.36786926348215293, 1791402800688517037, 
-0.5439696311950684, 0.06757694482803345, 0.3727562332952647, 1791402800718904254, 
0.06672030687332153, 0.0036835074424743652, 0.378586545240339, 1791402800750378280, 
0.45283663272857666, 0.2118702530860901, 0.4029016993109449, 1791402800781394931, 
-0.3850629925727844, -0.0478668212890625, 0.44093971737215465, 1791402800818220730, 
0.44258326292037964, 0.1507231593132019, 0.3888237531435202, 1791402800848257459, 
0.019341707229614258, -0.11153370141983032, 0.3958450656869092, 1791402800878509259, 
-0.44740283489227295, 0.4510709047317505, 0.38159885425241225, 1791402800909792610, 
0.10256397724151611, 0.031043827533721924, 0.3990951686336864, 1791402800938132861, 
-1.2354918718338013, -0.1834317445755005, 0.3725568965818434, 1791402800967957390, 
-0.9799102544784546, -0.2039715051651001, 0.35662280084209386, 1791402800998010478, 
-1.5780773162841797, 0.158427894115448, 0.26987734912707884, 1791402801027890711, 
-0.08390563726425171, -0.22154825925827026, 0.213897086261387, 1791402801056821929, 
-0.8560123443603516, -0.10432463884353638, 0.15934414081333334, 1791402801086935480, 
-0.6510159373283386, 0.09116309881210327, 0.11281654881045709, 1791402801118504946, 
-0.7713336944580078, -0.2088947892189026, 0.059435881082626284, 1791402801150561713, 
-0.038061320781707764, -0.08457672595977783, 0.011501149642665848, 1791402801187777993, 
-0.03513836860656738, -0.07631152868270874, -0.0032282309640620627, 1791402801217564917, 
0.32100242376327515, 0.03213602304458618, -0.018387206450531803, 1791402801246772859, 
0.013405799865722656, -0.02875441312789917, -0.011307262008452461, 1791402801278738281, 
0.19283759593963623, -0.03627657890319824, 0.0024840309141238854, 1791402801310390233, 
-0.07767778635025024, 0.0031119585037231445, 0.003901385168949032, 1791402801337431889, 
0.07461261749267578, -0.06501644849777222, -0.004080753596827273, 1791402801367535725, 
0.048460423946380615, -0.05955696105957031, -0.0021517283751763053, 1791402801397424797, 
0.052197813987731934, 0.01208263635635376, 0.0028232400726622073, 1791402801427256341, 
0.35919052362442017, 0.08638077974319458, 0.002101983729199925, 1791402801457342984, 
1.6186695098876953, 0.36530619859695435, 0.10432115639687459, 1791402801487140211, 
0.8025729060173035, -0.002896249294281006, 0.18384729743291303, 1791402801518517140, 
1.1906321048736572, -0.41097795963287354, 0.17970975875395817, 1791402801549676019, 
0.42260831594467163, 0.5180306434631348, 0.22841870891258195, 1791402801576978085, 
0.3820132613182068, 0.24380481243133545, 0.2532110970819903, 1791402801606853282, 
0.8941648006439209, -0.22584187984466553, 0.3352924292672941, 1791402801636934561, 
1.1435105800628662, 0.054917871952056885, 0.36761021159913915, 1791402801666900778, 
0.1130441427230835, 0.09309560060501099, 0.38109530072524384, 1791402801696624032, 
-0.0008145570755004883, 0.33388596773147583, 0.42057928831910113, 1791402801726570840, 
0.1366700530052185, 0.3356032967567444, 0.412956114748846, 1791402801758539158, 
-0.6675451993942261, -0.63008713722229, 0.5132529036202855, 1791402801786547650, 
0.05084085464477539, 0.32921111583709717, 0.484811122735599, 1791402801816389038, 
0.22253048419952393, 0.707911491394043, 0.4447822283976327, 1791402801846377460, 
-0.2777213454246521, -0.5482924580574036, 0.4225159912628439, 1791402801876295871, 
-0.0093461275100708, -0.19516217708587646, 0.40308505958466917, 1791402801906455106, 
0.29013562202453613, 0.5286498665809631, 0.3849160602354121, 1791402801937035884, 
-0.45856815576553345, -0.288446843624115, 0.3815732092815539, 1791402801966459677, 
0.20672690868377686, -0.30040913820266724, 0.3483218965022027, 1791402801999180271, 
0.10824435949325562, 0.452789306640625, 0.3838319276247533, 1791402802026111763, 
0.4220196604728699, 0.04148370027542114, 0.3481326527042503, 1791402802056031088, 
0.23097944259643555, -0.12819170951843262, 0.40385755190619055, 1791402802086024651, 
-0.6876934170722961, 0.2904035449028015, 0.37675013813976077, 1791402802116000113, 
0.6805257201194763, -0.03955531120300293, 0.37087182581593314, 1791402802144885317, 
-0.8941335082054138, -0.1857185959815979, 0.3513356321904665, 1791402802176059126, 
0.2596008777618408, 0.2580222487449646, 0.370763295102697, 1791402802206383135, 
-0.10770273208618164, -0.09013044834136963, 0.41346121196516017, 1791402802238442896, 
0.42386138439178467, 0.09942930936813354, 0.4845807179998793, 1791402802265971567, 
-0.3372557759284973, -0.08904856443405151, 0.43657834429056463, 1791402802294666529, 
0.33686894178390503, 0.011349081993103027, 0.3823302875737943, 1791402802325675382, 
0.07234716415405273, 0.2696989178657532, 0.3795888776760531, 1791402802355687015, 
-0.24875593185424805, -0.2979046702384949, 0.39061476729936484, 1791402802385426833, 
0.12828880548477173, -0.05681687593460083, 0.4054720620093605, 1791402802415406344, 
-0.5501313805580139, 0.2685094475746155, 0.38970693948045887, 1791402802446929876, 
0.6038155555725098, -0.1565839648246765, 0.3816630982259415, 1791402802478516606, 
-0.7925875186920166, 0.04411429166793823, 0.4307086222048791, 1791402802505215535, 
0.755068838596344, 0.09851294755935669, 0.40683555805774, 1791402802535134826, 
-0.2002018690109253, -0.08033496141433716, 0.3964996240776124, 1791402802565088347, 
0.18517255783081055, -0.08879083395004272, 0.38952099242353383, 1791402802595391037, 
-0.01616525650024414, 0.6981295347213745, 0.4009934294408632, 1791402802625084851, 
0.1415049433708191, -0.4295777678489685, 0.3937987947947792, 1791402802654982729, 
-0.14019358158111572, -0.3149127960205078, 0.37625871092695484, 1791402802686478307, 
-0.0885191559791565, 0.5991218686103821, 0.41041107139607685, 1791402802717427763, 
0.17289942502975464, -0.1332176923751831, 0.4805698257158208, 1791402802743794397, 
-0.25324302911758423, 0.09828919172286987, 0.3934500226780343, 1791402802773829843, 
0.6646641492843628, 0.16610252857208252, 0.42001837117599283, 1791402802803657634, 
-0.7655561566352844, -0.07449668645858765, 0.4014349942244763, 1791402802833794691, 
0.5916056632995605, -0.2662237882614136, 0.39842781821822953, 1791402802864555701, 
-0.6324814558029175, 0.19734519720077515, 0.4058421161408194, 1791402802893919446, 
0.0013069510459899902, -0.10100317001342773, 0.3632671023388355, 1791402802926569868, 
-0.010636866092681885, 0.0005217194557189941, 0.45612993328500195, 1791402802954515103, 
0.22118282318115234, 0.24729114770889282, 0.42423265637058366, 1791402802984323221, 
0.08842974901199341, -0.15255075693130493, 0.40632062107884953, 1791402803014313229, 
-0.3274537920951843, -0.036696434020996094, 0.39317163433811, 1791402803044368414, 
0.28391319513320923, 0.14734023809432983, 0.3933113934023826, 1791402803074154638, 
-0.05460399389266968, -0.021977484226226807, 0.3834388033092123, 1791402803104106611, 
0.14940643310546875, 0.021916210651397705, 0.3803336773998123, 1791402803134788781, 
-0.14553672075271606, 0.15360891819000244, 0.36321748511631435, 1791402803166667295, 
-0.04917752742767334, -0.10476940870285034, 0.4238633729013464, 1791402803194031508, 
-0.7447383999824524, 0.29980868101119995, 0.40732222633790827, 1791402803223906555, 
0.5878404974937439, 0.005927920341491699, 0.438771114797799, 1791402803253909773, 
-0.3571673035621643, -0.07494038343429565, 0.43204649634541054, 1791402803283916943, 
0.42450863122940063, -0.10845941305160522, 0.4359171938215608, 1791402803313853027, 
0.06879407167434692, 0.0186498761177063, 0.43532978368443465, 1791402803342712724, 
-0.2972220182418823, -0.1381579041481018, 0.3669147756661983, 1791402803374340858, 
0.550527811050415, 0.3834112286567688, 0.3555007444397308, 1791402803406762154, 
-0.6335321068763733, -0.28396642208099365, 0.4586468572345577, 1791402803432850267, 
0.5259156823158264, -0.22079384326934814, 0.41639125656056536, 1791402803463431407, 
-0.19681096076965332, 0.05042552947998047, 0.3667455433142494, 1791402803486484911, 
0.3255312442779541, -0.2077021598815918, 0.4291430176892188, 1791402803523401997, 
-0.31551629304885864, -0.4588967561721802, 0.3813246206186051, 1791402803553308224, 
0.30650532245635986, 0.9968404173851013, 0.395546204432262, 1791402803583303025, 
-0.2573784589767456, -0.4906803369522095, 0.3921849144612508, 1791402803614655035, 
-0.32621192932128906, -0.3625558614730835, 0.3927753352891914, 1791402803646522328, 
-0.6263362765312195, 0.34371238946914673, 0.456097640500384, 1791402803683300265, 
0.3155316114425659, 0.4497683644294739, 0.4093179881651278, 1791402803713258624, 
-0.19061195850372314, -0.5143755674362183, 0.4052387432409901, 1791402803743003756, 
0.31779927015304565, 0.11837410926818848, 0.40481306322423244, 1791402803774763900, 
-0.16924941539764404, 0.4142411947250366, 0.3823779412855211, 1791402803806361579, 
0.22301310300827026, -0.011404633522033691, 0.42189257304599465, 1791402803842789873, 
-0.15064078569412231, -0.25599944591522217, 0.3805810763760603, 1791402803872708033, 
0.17145001888275146, 0.1104472279548645, 0.409570381531615, 1791402803902689436, 
-0.11354309320449829, 0.06805574893951416, 0.386872304488864, 1791402803934673764, 
-0.08988994359970093, -0.15216386318206787, 0.39638506614129043, 1791402803965688000, 
0.049741506576538086, -0.16530591249465942, 0.4169366706181463, 1791402804002661281, 
0.5438931584358215, 0.32010215520858765, 0.3862568043838154, 1791402804032442017, 
-0.025812804698944092, 0.03580516576766968, 0.4077335695828395, 1791402804062994765, 
-0.14701998233795166, 0.06266415119171143, 0.3861095912953641, 1791402804094621899, 
0.37524980306625366, -0.06682717800140381, 0.4234520404378713, 1791402804122327883, 
-0.8546711802482605, -0.11655747890472412, 0.36653074375810324, 1791402804152283024, 
0.5654252767562866, 0.19749552011489868, 0.4061937364705722, 1791402804182352310, 
-0.07482779026031494, -0.062315940856933594, 0.4293403574554649, 1791402804212127651, 
-0.014351367950439453, -0.11206883192062378, 0.4164002819992794, 1791402804242263243, 
-0.022924065589904785, 0.22142034769058228, 0.41594611555884276, 1791402804272053979, 
0.16238099336624146, 0.03767448663711548, 0.37823233861417055, 1791402804303088448, 
-0.11691874265670776, -0.28277158737182617, 0.3696764413668195, 1791402804334344721, 
0.0932074785232544, 0.26977968215942383, 0.42810356424986534, 1791402804362054326, 
-0.017988622188568115, 0.018401920795440674, 0.4085803274621554, 1791402804391925000, 
-0.43953728675842285, 0.307542622089386, 0.3569065122692897, 1791402804414762369, 
0.515822172164917, 0.288795530796051, 0.44759116896734574, 1791402804442086947, 
-0.5208995938301086, -0.7453775405883789, 0.4031282401695215, 1791402804470910341, 
0.6616522073745728, 0.6626969575881958, 0.3312375361275459, 1791402804494776458, 
-0.25320130586624146, 0.25656646490097046, 0.4338107001966345, 1791402804531606502, 
0.2148735523223877, -0.6438738107681274, 0.3941448425301531, 1791402804561579390, 
0.46478790044784546, -0.03327524662017822, 0.393793787613438, 1791402804590802107, 
0.14619594812393188, 0.49112141132354736, 0.3657182792446296, 1791402804623145741, 
-0.702201247215271, -0.36768949031829834, 0.3918307751911782, 1791402804654566862, 
0.0985490083694458, -0.18901163339614868, 0.47325552361895074, 1791402804681673527, 
-0.16989856958389282, 0.37362122535705566, 0.4323293470534247, 1791402804711402600, 
-0.12184524536132812, -0.22510087490081787, 0.4068512977727665, 1791402804741347825, 
0.45072662830352783, -0.15068495273590088, 0.4017957759061676, 1791402804771872336, 
-0.5590658187866211, 0.2528490424156189, 0.4087336342092937, 1791402804801398401, 
0.6432585120201111, -0.17938989400863647, 0.39365149459292065, 1791402804831271399, 
-0.8129696249961853, -0.11759227514266968, 0.3735922624120707, 1791402804862454158, 
0.23044514656066895, 0.008662104606628418, 0.376212451122251, 1791402804893546155, 
-0.566990315914154, 0.13173425197601318, 0.44149265298856355, 1791402804931145005, 
0.1819596290588379, -0.010599076747894287, 0.3899025081124636, 1791402804961071945, 
0.38540196418762207, -0.08544623851776123, 0.3883604396389945, 1791402804991156774, 
-0.4103968143463135, -0.1612147092819214, 0.37514979648320496, 1791402805022554983, 
0.28270500898361206, 0.1647719144821167, 0.37538216627395393, 1791402805053367262, 
-0.03905457258224487, 0.10958677530288696, 0.4231101283584004, 1791402805081016918, 
-0.2563999891281128, -0.23630034923553467, 0.3981262376679285, 1791402805111093754, 
-0.24493616819381714, -0.0064293742179870605, 0.36213821656610273, 1791402805133382637, 
0.0890892744064331, 0.3785948157310486, 0.43609125160630796, 1791402805171036527, 
0.264872670173645, -0.28917765617370605, 0.40337163395926046, 1791402805201184843, 
0.4871482253074646, -0.0643455982208252, 0.41248534651292973, 1791402805231099831, 
-0.8469321727752686, 0.4474119544029236, 0.3812032822490531, 1791402805262943909, 
0.03828310966491699, 0.20287322998046875, 0.4350565629420598, 1791402805300166306, 
-0.8393176794052124, -0.5942031741142273, 0.3963426988867102, 1791402805330145642, 
1.0075730085372925, 0.22705447673797607, 0.38239326495302495, 1791402805360047975, 
-0.6977989673614502, 0.2104436159133911, 0.3986859487502677, 1791402805391032910, 
0.38768357038497925, -0.5840334892272949, 0.39896319010212195, 1791402805422658078, 
0.13941729068756104, 0.32525569200515747, 0.46357931823266024, 1791402805450028722, 
-0.6051129698753357, 0.15468692779541016, 0.3852950136214703, 1791402805479985087, 
-0.16395080089569092, -0.4835395812988281, 0.3775331436057881, 1791402805509789263, 
-0.026233434677124023, 0.47775572538375854, 0.3990247732848378, 1791402805539753451, 
-0.15363293886184692, 0.05250293016433716, 0.3831093181482142, 1791402805569904365, 
-1.1778995990753174, -0.7745389938354492, 0.35879227938128794, 1791402805598813951, 
-1.339781641960144, 0.11979556083679199, 0.23416887068755582, 1791402805631092931, 
-0.8602039217948914, -0.012183964252471924, 0.20140976958060042, 1791402805662612188, 
-0.7703631520271301, -0.07513821125030518, 0.18743618201244533, 1791402805689513358, 
-0.4090421795845032, -0.3354616165161133, 0.10572859606014319, 1791402805719434955, 
-0.4230461120605469, -0.39383256435394287, 0.049874139205230456, 1791402805742668325, 
-0.14338546991348267, 0.13250857591629028, 0.0003480643401232557, 1791402805779259104, 
0.07495993375778198, -0.2053179144859314, 0.002275859244795673, 1791402805809431326, 
0.15463268756866455, -0.13315355777740479, -0.01725349895911751, 1791402805839324682, 
-0.07885068655014038, 0.035420000553131104, -0.01778231885240186, 1791402805870698831, 
0.11704254150390625, -0.12049132585525513, -0.000523941887291754, 1791402805902676344, 
1.7494115829467773, 0.15245884656906128, 0.10901059928133212, 1791402805939046828, 
0.9153114557266235, 0.1379300355911255, 0.17242513231448842, 1791402805969159822, 
0.6558706164360046, -0.26037412881851196, 0.17692426559287405, 1791402805999035045, 
0.3363388776779175, 0.048254549503326416, 0.20351966025053245, 1791402806031114695, 
0.4043545722961426, 0.14578211307525635, 0.2876516116883715, 1791402806060637902, 
0.906903088092804, -0.11930370330810547, 0.34836411443241044, 1791402806088789294, 
0.41389691829681396, 0.12773096561431885, 0.3447150435793226, 1791402806118662222, 
0.5552319884300232, 0.24112284183502197, 0.33948739061438227, 1791402806141339433, 
-0.07393848896026611, 0.11208873987197876, 0.4504440780765708, 1791402806178580073, 
-0.09120434522628784, -0.14270222187042236, 0.41548318596278294, 1791402806208527078, 
-0.27692651748657227, 0.20377004146575928, 0.42869460403860327, 1791402806238917535, 
-0.06408542394638062, -0.11984556913375854, 0.43593918585235536, 1791402806270661404, 
0.032279133796691895, 0.2632502317428589, 0.4714008118586542, 1791402806298452814, 
-0.6850738525390625, -0.1365411877632141, 0.3817083331527001, 1791402806328344998, 
0.22172188758850098, -0.14064717292785645, 0.34796265144411626, 1791402806358274013, 
-0.3328080177307129, -0.35668420791625977, 0.3844304282821594, 1791402806388260563, 
0.25765007734298706, 0.03654944896697998, 0.38978621922764994, 1791402806418193839, 
-0.030123591423034668, 0.11060178279876709, 0.377194140456378, 1791402806448116434, 
0.1016010046005249, 0.32451605796813965, 0.3569001008234682, 1791402806479392985, 
0.1852496862411499, -0.2831992506980896, 0.41798452385158635, 1791402806510601588, 
-0.25327664613723755, -0.05978548526763916, 0.49402745609517634, 1791402806537981442, 
0.5345790386199951, 0.32332199811935425, 0.4233239399547433, 1791402806567951582, 
-0.41999006271362305, -0.3437333106994629, 0.4401935913682478, 1791402806595823904, 
0.10577839612960815, -0.136574387550354, 0.3639901643867207, 1791402806627766972, 
-0.09726947546005249, 0.5940852165222168, 0.3827764096215438, 1791402806657934216, 
-0.28410232067108154, -0.36174267530441284, 0.3885940945243081, 1791402806687890415, 
-0.47453343868255615, -0.15905731916427612, 0.4024227692411315, 1791402806718715573, 
0.01060950756072998, 0.512228786945343, 0.39080159854180896, 1791402806751154702, 
-0.22463107109069824, -0.31701725721359253, 0.48030126572265686, 1791402806776817925, 
1.0040700435638428, -0.18151521682739258, 0.3989955090998577, 1791402806807441316, 
-0.24518674612045288, 0.4089471697807312, 0.4004591469187209, 1791402806837511992, 
-0.11753356456756592, -0.3540775775909424, 0.37866131818526205, 1791402806867429247, 
-0.0033740997314453125, -0.09459525346755981, 0.38134795754962575, 1791402806897302738, 
-0.45583003759384155, 0.5316580533981323, 0.3957329599185151, 1791402806927274269, 
0.09260475635528564, -0.38473111391067505, 0.39633095701383475, 1791402806958616355, 
0.13182955980300903, 0.025705337524414062, 0.40570572583367576, 1791402806990177192, 
-0.15849804878234863, -0.11916142702102661, 0.4371364649895919, 1791402807027418312, 
-0.13698750734329224, -0.0024886727333068848, 0.39245667619252905, 1791402807056999573, 
0.2485840916633606, 0.2032541036605835, 0.39244378671040403, 1791402807087112389, 
-0.7226498126983643, -0.23841899633407593, 0.37096297487272994, 1791402807119084653, 
0.3663288950920105, 0.1282050609588623, 0.38969104698795015, 1791402807149503934, 
-0.47539156675338745, -0.07956600189208984, 0.4486729481960216, 1791402807175805158, 
-0.1341962218284607, 0.22877466678619385, 0.3899134066892822, 1791402807206711947, 
-0.06195485591888428, 0.0514337420463562, 0.3968033314488157, 1791402807236692511, 
0.4990406036376953, -0.039793193340301514, 0.3877454623425486, 1791402807266662594, 
-0.3187711238861084, -0.10416901111602783, 0.3995181026637424, 1791402807296569000, 
-0.20478534698486328, -0.05811178684234619, 0.39832006207517207, 1791402807326582350, 
-0.04055970907211304, 0.2223702073097229, 0.3637290392587905, 1791402807358763093, 
0.11219573020935059, 0.242020845413208, 0.42987685273514453, 1791402807386652279, 
-0.07083314657211304, -0.5092487335205078, 0.41084546164508884, 1791402807416371479, 
-0.013107836246490479, 0.11685895919799805, 0.4132200304099785, 1791402807446464740, 
0.12116599082946777, 0.43882572650909424, 0.42309547694599847, 1791402807476261955, 
-0.9007779955863953, -0.2834230065345764, 0.3900683495460814, 1791402807506261093, 
0.453616738319397, -0.28323686122894287, 0.4037586323179872, 1791402807536132194, 
-0.3562418222427368, 0.49770647287368774, 0.39201084249518453, 1791402807566985283, 
0.44829994440078735, -0.2756817936897278, 0.3972062159142804, 1791402807597816300, 
-0.06274718046188354, -0.16577106714248657, 0.4405047168080336, 1791402807626174644, 
-0.29533034563064575, 0.37847280502319336, 0.4117876523407704, 1791402807656045565, 
0.543703556060791, -0.18100935220718384, 0.3469693498633236, 1791402807678768692, 
-0.48529189825057983, -0.11847788095474243, 0.429131962380689, 1791402807715991345, 
0.5771793723106384, 0.18789130449295044, 0.4470548687820082, 1791402807744891077, 
-0.23756194114685059, -0.1547432541847229, 0.4066954809524191, 1791402807774872099, 
0.18289220333099365, -0.17368948459625244, 0.36646776438319334, 1791402807806592961, 
-0.31493741273880005, -0.046059608459472656, 0.3405244779075754, 1791402807838669469, 
0.3443661332130432, 0.20559042692184448, 0.4100797857375531, 1791402807866321772, 
-0.7692558765411377, -0.07836192846298218, 0.4084051426679999, 1791402807896217792, 
0.1488843560218811, -0.10166728496551514, 0.4048355654823999, 1791402807926193284, 
-0.4727141261100769, 0.06689673662185669, 0.41234934799306777, 1791402807956110073, 
0.20801788568496704, -0.05853545665740967, 0.4200742788759945, 1791402807985431335, 
-0.16104155778884888, -0.01497805118560791, 0.3853038192718557, 1791402808015339275, 
0.23196113109588623, 0.21544349193572998, 0.37651150010372775, 1791402808046617074, 
-0.03923720121383667, 0.13567936420440674, 0.43030487118305905, 1791402808085382077, 
0.08805340528488159, 0.18182700872421265, 0.41263540079211525, 1791402808115322820, 
-0.48871588706970215, -0.03825855255126953, 0.3769801210238584, 1791402808145265849, 
0.03024691343307495, -0.10593461990356445, 0.4013824317680576, 1791402808175116515, 
-0.136702299118042, -0.0358162522315979, 0.41738566746296885, 1791402808205868189, 
-0.38410454988479614, 0.04699218273162842, 0.38345208810158826, 1791402808237473236, 
0.3622225522994995, -0.11765557527542114, 0.43350299039917584, 1791402808264838512, 
-0.4131777882575989, 0.49155062437057495, 0.3853875028802277, 1791402808294930322, 
0.5761605501174927, -0.11817961931228638, 0.4034206590211429, 1791402808324943116, 
-1.0745919942855835, -0.5073123574256897, 0.4323687735419658, 1791402808353835434, 
-0.006808757781982422, 0.6320203542709351, 0.40579097827536015, 1791402808384632333, 
-0.46745216846466064, -0.14858925342559814, 0.4073836968924371, 1791402808414663638, 
0.4281667470932007, -0.41635000705718994, 0.3738245693367236, 1791402808447253543, 
0.21532374620437622, 0.6173081398010254, 0.44880558967759937, 1791402808474536767, 
-0.25734370946884155, 0.6402384638786316, 0.3985453472489387, 1791402808514377055, 
-0.14455300569534302, -0.5321616530418396, 0.4027494421895358, 1791402808544334526, 
0.2636922597885132, 0.04262852668762207, 0.394114428933422, 1791402808574940210, 
-0.2870402932167053, 0.5251204967498779, 0.36479771127082655, 1791402808607017295, 
-0.16135632991790771, -0.524591326713562, 0.43550166089311604, 1791402808634250789, 
0.4268190264701843, -0.1100010871887207, 0.4200580931295504, 1791402808664298042, 
0.034704625606536865, 0.5446721315383911, 0.4125053706706817, 1791402808694102645, 
0.6770013570785522, -0.33281928300857544, 0.4237605882966776, 1791402808724020728, 
-0.6965402364730835, 0.07693010568618774, 0.3992039051503709, 1791402808753943433, 
-0.2183855175971985, -0.0968511700630188, 0.38769298917694267, 1791402808783876211, 
-0.15985924005508423, -0.041438519954681396, 0.39811915452567265, 1791402808814636725, 
-0.21522343158721924, 0.03143101930618286, 0.39410883224029525, 1791402808846791255, 
0.26546311378479004, -0.1131441593170166, 0.44941457909730864, 1791402808873720558, 
-0.040833115577697754, 0.11447125673294067, 0.3866621787480995, 1791402808903771470, 
-0.3623025417327881, -0.0883934497833252, 0.39372023204362777, 1791402808933852845, 
0.07141244411468506, 0.12740808725357056, 0.39791461960933544, 1791402808963550093, 
-0.08584684133529663, -0.1993430256843567, 0.40826951426409513, 1791402808993712012, 
-0.289253830909729, 0.34027642011642456, 0.4126212128789498, 1791402809023486374, 
0.13769298791885376, 0.28125590085983276, 0.3448561418270753, 1791402809054656012, 
-2.1012611389160156, -0.6019042730331421, 0.3262178843615419, 1791402809087098848, 
-1.2664616107940674, 0.14196914434432983, 0.2957712108779191, 1791402809123432708, 
-0.8026151657104492, 0.1709686517715454, 0.23777657119598192, 1791402809153216072, 
-0.7816849946975708, -0.30608922243118286, 0.1627600659118346, 1791402809183384245, 
-0.3702409267425537, -0.225003182888031, 0.10004519495091789, 1791402809215530590, 
-0.21960186958312988, 0.0963323712348938, 0.08883380676100341, 1791402809245760777, 
1.8562602996826172, 0.5013784170150757, 0.16048649098254883, 1791402809283167665, 
0.8174376487731934, -0.23007941246032715, 0.29199658108198623, 1791402809311948150, 
1.2050248384475708, -0.0443568229675293, 0.29375051144442077, 1791402809343413644, 
0.822123110294342, -0.0049626827239990234, 0.3172789122141801, 1791402809375180600, 
0.8642522692680359, 0.34008175134658813, 0.36975689951260426, 1791402809405407719, 
-0.4789813160896301, 0.32030773162841797, 0.4359003354787146, 1791402809442673716, 
-0.4249942898750305, 0.35848724842071533, 0.42344363693657733, 1791402809472747789, 
-0.46587973833084106, -0.6871194839477539, 0.4173266143458833, 1791402809503141269, 
-0.49239683151245117, 0.23018425703048706, 0.40514542347729365, 1791402809535312599, 
-0.04662156105041504, 0.5440749526023865, 0.4893470957938595, 1791402809562594563, 
0.08434516191482544, -0.5895557403564453, 0.41761958699413537, 1791402809592425830, 
-0.07207721471786499, 0.1228531002998352, 0.39243154466603547, 1791402809622375663, 
0.57318514585495, 0.4197885990142822, 0.35892357490793014, 1791402809652771838, 
-0.7703286409378052, -0.325131893157959, 0.374415511832333, 1791402809682463169, 
0.8835393786430359, 0.24975663423538208, 0.41919554408295556, 1791402809712205316, 
0.05322033166885376, 0.29528921842575073, 0.4138795233251139, 1791402809742786251, 
-0.7099598050117493, -0.49243611097335815, 0.3845871857258564, 1791402809774965293, 
0.13182640075683594, 0.15031903982162476, 0.4404963072259931, 1791402809802583535, 
-0.17498469352722168, 0.24823391437530518, 0.3884041462792774, 1791402809832011904, 
0.7839329242706299, -0.07342588901519775, 0.3967946436545292, 1791402809862137986, 
-0.33644402027130127, 0.05440038442611694, 0.3815715497260713, 1791402809892052506, 
-0.007149100303649902, 0.0028235912322998047, 0.3592033849848188, 1791402809922040704, 
-0.35540515184402466, -0.04123204946517944, 0.36672883584664157, 1791402809951762356, 
-0.16156655550003052, 0.16516602039337158, 0.3824723376705879, 1791402809983074619, 
-0.6829134225845337, 0.11157333850860596, 0.40480996066582253, 1791402810014682513, 
-0.2312280535697937, -0.06717485189437866, 0.47096382144760734, 1791402810051588556, 
-0.453618586063385, 0.274982750415802, 0.4230588994617675, 1791402810081576413, 
0.5794201493263245, 0.1556909680366516, 0.3873743301584333, 1791402810111630215, 
-0.6511408686637878, -0.2601203918457031, 0.37109753526556005, 1791402810142943591, 
0.20384961366653442, 0.04655689001083374, 0.3806917097607653, 1791402810175155335, 
-0.08714431524276733, 0.3383246660232544, 0.4707348272034062, 1791402810201706952, 
-0.2097645401954651, -0.40616410970687866, 0.3969011466376359, 1791402810231732813, 
-0.18244844675064087, 0.24652421474456787, 0.3600593149614871, 1791402810253837778, 
-0.14478850364685059, -0.39860856533050537, 0.442838377988187, 1791402810281767181, 
-0.02511751651763916, 0.11652696132659912, 0.41924608928411405, 1791402810311498958, 
-0.3702857494354248, 0.4845696687698364, 0.40994105824536164, 1791402810341524544, 
0.13234347105026245, -0.4460015892982483, 0.39795010246471024, 1791402810371550575, 
-0.5945150256156921, 0.07342582941055298, 0.4042825707717367, 1791402810401371630, 
0.04979586601257324, 0.616870641708374, 0.4041362586269806, 1791402810431330829, 
-0.3735393285751343, -0.7110379338264465, 0.3691683442485365, 1791402810462991332, 
0.38766998052597046, 0.24999552965164185, 0.4124202981038818, 1791402810493590369, 
-0.07304364442825317, 0.15273410081863403, 0.46772004970249675, 1791402810521578734, 
0.17429524660110474, -0.4380546808242798, 0.3903455158795131, 1791402810551323548, 
0.07253772020339966, 0.32254862785339355, 0.37996250384325525, 1791402810581274215, 
-0.5536801815032959, 0.16689205169677734, 0.3999661870556242, 1791402810611285644, 
0.04703378677368164, -0.34708160161972046, 0.40457941190469326, 1791402810641473886, 
0.08512353897094727, 0.3551900386810303, 0.4125674529290026, 1791402810671444222, 
0.1038808822631836, 0.322915256023407, 0.38667831358042093, 1791402810702670146, 
-0.29569685459136963, -0.3275410532951355, 0.4237834882134843, 1791402810730502854, 
-0.33328086137771606, 0.024565398693084717, 0.3977684381242591, 1791402810760386567, 
-0.7241120338439941, -0.1098635196685791, 0.3318517246976014, 1791402810782927344, 
-1.000171184539795, -0.16991186141967773, 0.2955179101216424, 1791402810820481374, 
-1.0668684244155884, -0.3773864507675171, 0.21704234294133004, 1791402810850493392, 
-0.5182744264602661, 0.057290494441986084, 0.17432180198340244, 1791402810880125922, 
-0.9414130449295044, 0.14364314079284668, 0.13076349943131882, 1791402810910926359, 
-0.871324360370636, -0.054632604122161865, 0.07394390423426898, 1791402810943237799, 
-0.5982319116592407, -0.20897197723388672, -0.010319964478863927, 1791402810979058130, 
0.106964111328125, 0.13909685611724854, -0.03079702490197036, 1791402811010079577, 
1.7463712692260742, 0.3679606318473816, 0.11314456934270374, 1791402811040123730, 
0.9037460088729858, 0.05094510316848755, 0.20592984439327783, 1791402811071301761, 
0.7993362545967102, 0.09461277723312378, 0.21065164474465514, 1791402811101823163, 
0.7237524390220642, 0.2352207899093628, 0.23926431556235972, 1791402811139922047, 
1.0594775676727295, 0.02319580316543579, 0.3021143360768632, 1791402811169693084, 
-0.1647893190383911, -0.03666633367538452, 0.35773132848356126, 1791402811199788841, 
0.23151105642318726, 0.46230775117874146, 0.3490602239265574, 1791402811231109277, 
-0.11102467775344849, -0.28123050928115845, 0.44100103593531126, 1791402811262330264, 
-0.6062153577804565, 0.0025367140769958496, 0.4814781525993087, 1791402811299355318, 
-0.04626721143722534, 0.07343953847885132, 0.44235518783862615, 1791402811329360872, 
-0.4891205430030823, -0.006752610206604004, 0.411878060861316, 1791402811359266568, 
0.21689635515213013, 0.17617851495742798, 0.3383615730983909, 1791402811391465421, 
-0.3813360333442688, -0.19195657968521118, 0.32616126548687685, 1791402811421912087, 
0.4380350112915039, -0.040391743183135986, 0.39286889292630445, 1791402811449163584, 
-0.7848424911499023, 0.4239526391029358, 0.4128686967335778, 1791402811479046149, 
-0.726647138595581, -0.08995252847671509, 0.39586894686153584, 1791402811509002705, 
0.20322632789611816, -0.21182632446289062, 0.3670307000877049, 1791402811538884205, 
-0.00817018747329712, 0.3765449523925781, 0.3383004873017647, 1791402811568890552, 
0.7647261023521423, 0.04243063926696777, 0.40164457681141225, 1791402811599021993, 
0.30261677503585815, 0.1772255301475525, 0.42901153316571494, 1791402811630945442, 
-0.6062979698181152, -0.1544838547706604, 0.3966187033490324, 1791402811660953410, 
-0.012179851531982422, -0.13100194931030273, 0.43447353689618706, 1791402811697956190, 
-0.31358271837234497, -0.13610994815826416, 0.4213346402424244, 1791402811728623361, 
0.03250199556350708, 0.36546504497528076, 0.43069065078933777, 1791402811759052687, 
-0.026389241218566895, -0.11021637916564941, 0.3650217013715957, 1791402811791640579, 
-0.8501519560813904, -0.10259044170379639, 0.41522387032288605, 1791402811818489709, 
0.808521568775177, 0.4228487014770508, 0.39420992625865725, 1791402811848370869, 
-0.6320738792419434, -0.03258705139160156, 0.39924610335805477, 1791402811878392775, 
-0.0526653528213501, -0.1664518117904663, 0.40496657523173896, 1791402811908479923, 
-0.1614612340927124, 0.17402178049087524, 0.4343903512718257, 1791402811938238973, 
0.20143717527389526, 0.21716296672821045, 0.4351602562153953, 1791402811968188409, 
0.09706109762191772, -0.12427377700805664, 0.41215934903196816, 1791402811997948205, 
0.08435958623886108, 0.05249661207199097, 0.3315809262283679, 1791402812031364765, 
0.17349660396575928, 0.3150833249092102, 0.41872151100260274, 1791402812058063226, 
-0.21402376890182495, -0.09133946895599365, 0.3922168258488257, 1791402812087960542, 
-0.173062264919281, 0.05308973789215088, 0.3934049336551032, 1791402812117865271, 
-0.1552848219871521, -0.05424034595489502, 0.37343386853797367, 1791402812147880407, 
-0.0730215311050415, 0.23740321397781372, 0.3833933876304107, 1791402812177773557, 
-0.41530466079711914, 0.03560584783554077, 0.4352081114888837, 1791402812207721110, 
-0.11887896060943604, -0.04295647144317627, 0.41302616915473794, 1791402812239075699, 
0.08484983444213867, 0.30560797452926636, 0.36946315958896225, 1791402812271004890, 
0.4496060013771057, -0.12232166528701782, 0.4440140640562052, 1791402812297648327, 
-0.30352240800857544, -0.03479820489883423, 0.39119858429740423, 1791402812327618434, 
0.011804640293121338, 0.37873202562332153, 0.3984777751787851, 1791402812357463558, 
-0.11658024787902832, -0.03830927610397339, 0.420830805619866, 1791402812387433936, 
-0.5840725302696228, -0.33915525674819946, 0.4348240235233714, 1791402812417404798, 
0.3139665722846985, 0.5550155639648438, 0.4259431102579952, 1791402812447311262, 
-0.08460003137588501, 0.0629035234451294, 0.38631096443792506, 1791402812479352830, 
0.18414270877838135, -0.41369056701660156, 0.3994854379761105, 1791402812509634182, 
-0.191736102104187, 0.7259624600410461, 0.46492385746396325, 1791402812536184768, 
0.09291213750839233, -0.11222618818283081, 0.3887396016916759, 1791402812567086087, 
-0.19449150562286377, -0.3366151452064514, 0.38994923496306017, 1791402812596973320, 
0.25167471170425415, 0.7238450646400452, 0.3911189187526449, 1791402812627145426, 
-0.10364562273025513, 0.096080482006073, 0.39413225389509576, 1791402812657104680, 
-0.10313010215759277, -0.35225003957748413, 0.398927618653533, 1791402812687298897, 
0.15944159030914307, 0.5898869633674622, 0.3895626809939174, 1791402812719047237, 
-0.6941120028495789, -0.185461163520813, 0.43658407527275955, 1791402812746870268, 
0.5422344207763672, -0.07652556896209717, 0.39757818923987615, 1791402812776681138, 
-0.37815356254577637, 0.2940724492073059, 0.4176647035704956, 1791402812806679718, 
-0.12073624134063721, 0.12422311305999756, 0.4004818290037325, 1791402812836611114, 
0.1545620560646057, -0.06630313396453857, 0.38556800032698363, 1791402812866544685, 
-0.00429612398147583, 0.02560269832611084, 0.39706494818845306, 1791402812896508092, 
-0.015443205833435059, 0.3453473448753357, 0.3927204023494065, 1791402812927774889, 
0.10135430097579956, -0.12310898303985596, 0.40451596002765844, 1791402812958850967, 
0.23876553773880005, 0.26018065214157104, 0.4291928051407922, 1791402812986471832, 
0.3100513219833374, -0.2003815770149231, 0.40028003017613867, 1791402813016387580, 
-0.0056833624839782715, 0.4013029932975769, 0.3810981955755712, 1791402813046302465, 
-0.28693944215774536, 0.2507086992263794, 0.366362286019491, 1791402813076193770, 
0.26061367988586426, -0.1402626633644104, 0.39809983100474994, 1791402813106103330, 
-0.759899914264679, 0.25547581911087036, 0.40762592563312244, 1791402813136083955, 
-0.14891725778579712, 0.08637863397598267, 0.407943968387048, 1791402813165830710, 
0.1157035231590271, -0.14221572875976562, 0.36602776728806735, 1791402813199067226, 
0.0868883728981018, 0.6113085746765137, 0.4519904764198976, 1791402813226094348, 
-0.11827653646469116, -0.11792367696762085, 0.41263046176748003, 1791402813256121596, 
-0.269303560256958, -0.13905268907546997, 0.4097955885345335, 1791402813285772342, 
-0.009568870067596436, 0.5071462392807007, 0.396577944713853, 1791402813315758696, 
-0.23723626136779785, 0.07484561204910278, 0.37748763753752035, 1791402813345983716, 
0.37892770767211914, -0.40130436420440674, 0.39726208065753443, 1791402813375621937, 
0.019208431243896484, 0.5173593163490295, 0.40999189191917723, 1791402813406853937, 
0.01087099313735962, 0.11491745710372925, 0.4048865777495003, 1791402813438238133, 
-0.8615037798881531, -0.27313292026519775, 0.45210689991941766, 1791402813465453598, 
0.6484266519546509, 0.6157827973365784, 0.3967599814079002, 1791402813495452484, 
-0.5304262638092041, -0.02970820665359497, 0.3910425090683289, 1791402813525346868, 
0.4814228415489197, -0.17769086360931396, 0.4111475845310885, 1791402813555315061, 
0.07487308979034424, 0.5949212908744812, 0.41808471473123543, 1791402813585328956, 
-0.054597318172454834, -0.14961212873458862, 0.4047368226029473, 1791402813614383961, 
-0.6527183055877686, -0.3096006512641907, 0.35989599624913987, 1791402813646846154, 
0.32053500413894653, 0.5884842872619629, 0.39757313179249026, 1791402813677622945, 
-0.3274719715118408, 0.04909580945968628, 0.429889467443604, 1791402813705065714, 
0.025416970252990723, -0.16192913055419922, 0.4112611552270335, 1791402813734997510, 
0.18385577201843262, 0.14814579486846924, 0.41439758355268586, 1791402813764884210, 
-0.5177706480026245, 0.3044505715370178, 0.3865861509735362, 1791402813794854372, 
0.507868766784668, 0.0973200798034668, 0.41923149744883675, 1791402813824009163, 
-0.8259778022766113, 0.12363052368164062, 0.40080554069863567, 1791402813854849177, 
0.36712968349456787, 0.11354905366897583, 0.3782514766047399, 1791402813887447642, 
-0.07435911893844604, -0.08151578903198242, 0.47662526977906045, 1791402813913854765, 
-0.013900279998779297, 0.14425241947174072, 0.4146379226807179, 1791402813944655370, 
0.2998234033584595, 0.035346031188964844, 0.3686368072781675, 1791402813974566391, 
-0.13138878345489502, 0.04612088203430176, 0.35737936763737016, 1791402814004532114, 
-0.0876585841178894, 0.11273670196533203, 0.4161798708142645, 1791402814033804958, 
-0.49961334466934204, -0.0417943000793457, 0.39970235488482225, 1791402814064395891, 
0.1442641019821167, 0.2979680895805359, 0.38335320489420405, 1791402814095080030, 
-0.09226959943771362, 0.09600412845611572, 0.3760121228228015, 1791402814126933460, 
0.006890535354614258, -0.27168071269989014, 0.44776892536174895, 1791402814154331810, 
-0.5320440530776978, 0.4486919045448303, 0.42790142106603285, 1791402814184204778, 
0.05157893896102905, 0.07033640146255493, 0.4182513126924662, 1791402814214132622, 
-0.5389204025268555, -0.5447210669517517, 0.3904379371199101, 1791402814244206452, 
0.7104185223579407, 0.6745773553848267, 0.3982638307591338, 1791402814274301356, 
-0.36310142278671265, 0.21573275327682495, 0.3969796253123526, 1791402814304048263, 
0.6076821088790894, -0.7521594762802124, 0.3704416850784837, 1791402814336173094, 
0.16509509086608887, -0.14740216732025146, 0.4252132287559088, 1791402814367173602, 
0.2925006151199341, 0.4204239845275879, 0.47392283104217797, 1791402814403906905, 
0.19541621208190918, 0.5140078067779541, 0.41036786014416027, 1791402814433906333, 
0.03175818920135498, -0.5246791839599609, 0.39456771936134594, 1791402814464077764, 
-0.20496314764022827, 0.2232874631881714, 0.3959667137639026, 1791402814495196930, 
0.14853757619857788, 0.540659487247467, 0.37119846950133956, 1791402814526171153, 
-0.09853172302246094, -0.3453215956687927, 0.4182683627597558, 1791402814553597097, 
0.3770914077758789, 0.21521568298339844, 0.4062703829323908, 1791402814583419163, 
-0.01569807529449463, 0.5252339839935303, 0.38441052706588325, 1791402814613355310, 
-0.41102761030197144, -0.3513888120651245, 0.4042536425883185, 1791402814643363421, 
0.6260601282119751, 0.17358821630477905, 0.3924047654793395, 1791402814673282149, 
-0.7471151351928711, 0.17699915170669556, 0.37324754072794203, 1791402814703222971, 
0.36627888679504395, 0.15703266859054565, 0.37214454413150133, 1791402814735171550, 
-0.12522375583648682, -0.040236711502075195, 0.40855305914575046, 1791402814764887174, 
0.10570204257965088, 0.21562612056732178, 0.4170950775732891, 1791402814793214275, 
-0.08546620607376099, 0.03587919473648071, 0.3925257562357885, 1791402814823161449, 
-0.2451237440109253, 0.3677009344100952, 0.398252854625195, 1791402814852941723, 
-0.24557077884674072, -0.07097476720809937, 0.40174376504391596, 1791402814882896918, 
0.42164337635040283, 0.037318289279937744, 0.42410037229601416, 1791402814912987140, 
0.2013189196586609, 0.1377047300338745, 0.4281014118653701, 1791402814942909002, 
-0.11356914043426514, -0.02087455987930298, 0.37344436487542393, 1791402814975486646, 
0.3027723431587219, 0.12814617156982422, 0.43503209117599245, 1791402815002783673, 
-0.7866098284721375, 0.5961307287216187, 0.377430494053986, 1791402815032669855, 
0.8935577273368835, -0.29328107833862305, 0.378634304646681, 1791402815062654987, 
-0.19297772645950317, -0.0654110312461853, 0.4303961092920276, 1791402815092527909, 
-0.3848879337310791, 0.5864558219909668, 0.4435482878953249, 1791402815122675356, 
-0.0341801643371582, -0.34992003440856934, 0.4169547144341928, 1791402815152451610, 
0.07677525281906128, 0.03326445817947388, 0.37185892478893645, 1791402815183079536, 
0.22141003608703613, 0.5677027106285095, 0.3914309164174584, 1791402815214938005, 
-0.26436811685562134, -0.3270038962364197, 0.414159656651707, 1791402815242533919, 
0.3493688702583313, 0.005073249340057373, 0.3758881583083384, 1791402815272419996, 
-0.2617652416229248, -0.274644672870636, 0.3302677645484916, 1791402815295352676, 
0.09476292133331299, -0.08844691514968872, 0.4140037040319977, 1791402815332369297, 
-0.2024117112159729, 0.08358734846115112, 0.43466283754447116, 1791402815362061000, 
0.2645764946937561, 0.2946268320083618, 0.4521212467429232, 1791402815392069788, 
-0.7318008542060852, -0.1322181224822998, 0.41618031513114906, 1791402815423510850, 
0.0998842716217041, 0.013098299503326416, 0.3841526449976551, 1791402815455107383, 
0.09781873226165771, 0.27438706159591675, 0.4159595681996896, 1791402815481911681, 
0.26150888204574585, -0.22635972499847412, 0.3692486561272462, 1791402815511927627, 
-0.06805253028869629, 0.2720875144004822, 0.4122953142881535, 1791402815540832515, 
0.2781912684440613, 0.17615073919296265, 0.3893516042283335, 1791402815570822990, 
-0.5067660808563232, -0.25372713804244995, 0.3623635226529168, 1791402815601920979, 
-0.23393148183822632, 0.2802807688713074, 0.39022259128873643, 1791402815632243065, 
0.03079068660736084, 0.2379821538925171, 0.3948527420215701, 1791402815662954870, 
-0.5651737451553345, -0.0987730622291565, 0.39211529711312115, 1791402815694184306, 
1.179543375968933, 0.18877393007278442, 0.48145990956139884, 1791402815721686302, 
-0.8946970105171204, -0.3221166729927063, 0.4297513679065, 1791402815751675838, 
0.0013820528984069824, -0.1566053032875061, 0.3919341046452266, 1791402815781766728, 
-0.1944141387939453, 0.5394774675369263, 0.35628882092306907, 1791402815811726726, 
0.11140996217727661, -0.3103156089782715, 0.388757807538807, 1791402815841630171, 
0.1253361701965332, -0.09066575765609741, 0.4565636706354953, 1791402815871921286, 
0.04207497835159302, 0.9418306946754456, 0.43409314471527977, 1791402815903264952, 
0.5850734710693359, -0.3941880464553833, 0.4012689291086279, 1791402815933440998, 
0.04417210817337036, -0.5759062170982361, 0.3936717475427766, 1791402815971603048, 
-0.12701261043548584, 0.3317388892173767, 0.38087635600913833, 1791402816001568372, 
-1.7977274656295776, 0.26970499753952026, 0.3718871473379171, 1791402816031076969, 
-1.3518513441085815, -0.31405413150787354, 0.2640640876530005, 1791402816063503563, 
-1.2917693853378296, -0.08039605617523193, 0.24038354839070605, 1791402816091385916, 
-0.2670758366584778, -0.11233729124069214, 0.19449506463779623, 1791402816130699033, 
-0.9296826720237732, 0.39020514488220215, 0.13581860657354808, 1791402816159811802, 
-0.17857378721237183, -0.24434787034988403, 0.10296762792459048, 1791402816191471846, 
2.2461791038513184, 0.303378701210022, 0.1087801341241828, 1791402816223245876, 
1.0428411960601807, 0.3029937148094177, 0.26684811285241034, 1791402816250607182, 
0.9204762578010559, 0.21757394075393677, 0.3070372001410526, 1791402816280606589, 
1.1258543729782104, -0.1978517770767212, 0.3364131244641569, 1791402816310381485, 
0.9031141996383667, 0.11774665117263794, 0.3412630243632119, 1791402816340427651, 
0.7136642932891846, 0.38861799240112305, 0.3818457856404692, 1791402816370490756, 
-0.30934810638427734, 0.2762545943260193, 0.40488165172032703, 1791402816400180848, 
-0.6157951354980469, -0.4412848949432373, 0.4076911543916009, 1791402816431057904, 
-0.3505901098251343, -0.028926491737365723, 0.41838289381679544, 1791402816463177047, 
-0.19265389442443848, 0.7055045962333679, 0.468015198757966, 1791402816490342699, 
0.23836666345596313, -0.34530162811279297, 0.38240387561490863, 1791402816519912629, 
0.25077444314956665, 0.005543947219848633, 0.3334865180167711, 1791402816549938412, 
0.32050639390945435, 0.2860698699951172, 0.372017048713544, 1791402816579862618, 
-0.05156528949737549, 0.07431691884994507, 0.4077861045050692, 1791402816608802046, 
0.23831480741500854, 0.059538066387176514, 0.3690915021561468, 1791402816640099651, 
-0.5189542174339294, -0.035075247287750244, 0.3511913032207318, 1791402816671199467, 
0.184451162815094, -0.05507814884185791, 0.3597581355175057, 1791402816703488515, 
-0.8804711699485779, 0.10935276746749878, 0.4671090019970812, 1791402816738834283, 
0.21902799606323242, -0.00944828987121582, 0.38379444153439063, 1791402816769482034, 
-0.04155772924423218, -0.012098848819732666, 0.3907722813181093, 1791402816799502992, 
0.3191465735435486, 0.5239289402961731, 0.3603719800273754, 1791402816831704175, 
-0.05024528503417969, -0.10491907596588135, 0.4392909319885969, 1791402816862169226, 
0.1349155306816101, -0.1946864128112793, 0.46879032350502187, 1791402816889327427, 
-0.005318045616149902, 0.2123470902442932, 0.4009302241905056, 1791402816919262496, 
-0.03040832281112671, 0.11230623722076416, 0.34954333584623565, 1791402816941471695, 
-0.05853062868118286, -0.24721789360046387, 0.4250354083563428, 1791402816979214213, 
0.14605528116226196, 0.12825769186019897, 0.43790765156993033, 1791402817009328669, 
0.384621262550354, 0.3695896863937378, 0.43881887839871525, 1791402817039388866, 
-0.8955803513526917, -0.3406347632408142, 0.39701963299142484, 1791402817071463723, 
0.21614181995391846, -0.12286597490310669, 0.45387406022626786, 1791402817098911294, 
-1.2610288858413696, 0.4776185154914856, 0.36633569353718093, 1791402817129135093, 
-0.25720882415771484, -0.2732999324798584, 0.2837286570326358, 1791402817157795825, 
-1.3604751825332642, -0.3637537956237793, 0.23533079378270955, 1791402817188752991, 
-0.1678551435470581, 0.19574040174484253, 0.1850633910049858, 1791402817218727086, 
-1.125001072883606, 0.05665707588195801, 0.15183919314685917, 1791402817248858773, 
-0.4091854691505432, -0.36882585287094116, 0.09778495518371827, 1791402817279959942, 
-0.7316644787788391, -0.20828044414520264, 0.051667391036513965, 1791402817311185061, 
-0.29217255115509033, 0.23627561330795288, -0.009228637879989914, 1791402817338887129, 
0.0059833526611328125, -0.08077895641326904, -0.015900534594811645, 1791402817368627586, 
0.29236286878585815, -0.17600131034851074, -0.010650001643336557, 1791402817398592325, 
1.4067938327789307, 0.4334273934364319, 0.045407580918601254, 1791402817428528729, 
0.9886599779129028, -0.2532368302345276, 0.16666156002204133, 1791402817458439978, 
0.7763518691062927, -0.0193442702293396, 0.19705859915335266, 1791402817488449625, 
0.9445722699165344, 0.28071391582489014, 0.22002563677114403, 1791402817519754811, 
0.916366696357727, -0.11135101318359375, 0.23226369080275402, 1791402817551129604, 
0.08732086420059204, 0.2341330647468567, 0.2941116590048028, 1791402817578202382, 
1.1482378244400024, 0.5480365753173828, 0.3433448329135574, 1791402817608056392, 
0.34328722953796387, -0.16470211744308472, 0.40720847776034463, 1791402817638235505, 
0.21752339601516724, 0.26611900329589844, 0.4035493826261566, 1791402817668134991, 
-0.2628974914550781, 0.21428191661834717, 0.42481229897850087, 1791402817697896728, 
-0.2876608371734619, 0.023582100868225098, 0.4348439912784337, 1791402817728021250, 
-0.10636579990386963, -0.2928691506385803, 0.41372506543327225, 1791402817759446026, 
0.21541249752044678, 0.23989540338516235, 0.3849901422765267, 1791402817790313534, 
0.2303125262260437, 0.15913879871368408, 0.4252084140644898, 1791402817826805548, 
0.36939167976379395, 0.0926201343536377, 0.36401055551491684, 1791402817857589129, 
-0.5593371987342834, 0.039903461933135986, 0.38407308201676377, 1791402817887545649, 
-0.3073197603225708, 0.06788796186447144, 0.3486746414404301, 1791402817919728149, 
-0.5482739210128784, 0.33618342876434326, 0.34523911444860433, 1791402817957472521, 
0.6802830100059509, -0.014170527458190918, 0.35054731951030826, 1791402817987426685, 
0.25783228874206543, -0.2152119278907776, 0.43555065837147106, 1791402818017261047, 
0.5919177532196045, 0.17710590362548828, 0.3865242283018773, 1791402818047736351, 
0.2320873737335205, 0.20625579357147217, 0.3543500967355472, 1791402818079276360, 
0.25874263048171997, 0.3233972191810608, 0.4110835273331004, 1791402818117098806, 
-0.08199721574783325, -0.10124474763870239, 0.4148851789722028, 1791402818147061711, 
-0.1966766119003296, -0.03678548336029053, 0.39925679767523653, 1791402818177138409, 
0.03355669975280762, 0.4814184308052063, 0.39909298465074483, 1791402818207191760, 
0.4238765239715576, -0.27735191583633423, 0.37011109825315786, 1791402818239995040, 
-0.1869361400604248, -0.4629250168800354, 0.4908208430464484, 1791402818277062370, 
0.43591123819351196, 0.2572264075279236, 0.44642312474248463, 1791402818306779868, 
0.2192642092704773, 0.6392964720726013, 0.3988432881822129, 1791402818336754223, 
-0.3016754388809204, -0.9010515213012695, 0.3726777981332057, 1791402818367565786, 
0.17461276054382324, 0.32392042875289917, 0.35745317091016177, 1791402818399896350, 
-0.22122043371200562, 0.5644230246543884, 0.42729480396856306, 1791402818436642675, 
-0.19273453950881958, -0.11276787519454956, 0.40429690458139117, 1791402818466679682, 
0.14516311883926392, -0.40269696712493896, 0.4350569751793258, 1791402818496425479, 
0.17717397212982178, 0.5793694257736206, 0.39311487413477886, 1791402818527313257, 
-0.4070132374763489, -0.20078939199447632, 0.3543254128630222, 1791402818559719360, 
0.43491828441619873, -0.33936983346939087, 0.45015074301157765, 1791402818586286851, 
-0.7903055548667908, 0.5833823680877686, 0.3888520333625251, 1791402818616287242, 
0.2120368480682373, -0.012990891933441162, 0.3766487785571808, 1791402818646163858, 
-0.07397598028182983, -0.19305074214935303, 0.38598795394730406, 1791402818676221244, 
0.37099123001098633, 0.2233419418334961, 0.40710450622962996, 1791402818706042986, 
-0.1607673168182373, -0.04254347085952759, 0.4330325227028787, 1791402818736076636, 
0.19740408658981323, 0.013778269290924072, 0.4055873144887285, 1791402818767186706, 
-0.055917322635650635, -0.06943631172180176, 0.37807772299323694, 1791402818798865006, 
0.046504855155944824, 0.15122824907302856, 0.4544418141869647, 1791402818824880217, 
-0.022451460361480713, -0.06964272260665894, 0.37942932181541217, 1791402818855997141, 
-0.05117487907409668, 0.1716863512992859, 0.33408679773520805, 1791402818878890342, 
0.1435542106628418, 0.045060038566589355, 0.41325917030961795, 1791402818905994333, 
-0.17563557624816895, 0.14430952072143555, 0.39072724334696696, 1791402818935754300, 
0.12512987852096558, -0.10347890853881836, 0.3900436898640086, 1791402818965767376, 
-0.04367971420288086, -0.03815799951553345, 0.43732047709142363, 1791402818995653547, 
0.5286707878112793, -0.030668199062347412, 0.4331138016786362, 1791402819025671534, 
0.3442695736885071, -0.0712326169013977, 0.4044773421390982, 1791402819055590915, 
-0.263313353061676, 0.03283035755157471, 0.37663613616900204, 1791402819087252251, 
0.20323538780212402, 0.44683992862701416, 0.3857380182117645, 1791402819117946820, 
-0.03479301929473877, -0.5679181218147278, 0.44321659885047227, 1791402819145322814, 
-0.12526404857635498, 0.03986847400665283, 0.42166583951007536, 1791402819175289292, 
0.02204662561416626, 0.6076876521110535, 0.41039960722819346, 1791402819205288621, 
0.03038763999938965, -0.5795217752456665, 0.4079166190551841, 1791402819235217262, 
-0.011294662952423096, 0.12426936626434326, 0.4014769914198478, 1791402819264984717, 
0.3214772939682007, 0.6580951809883118, 0.41472820361478163, 1791402819295450689, 
0.10958385467529297, -0.5705617070198059, 0.373340432601644, 1791402819327569616, 
0.2118796706199646, 0.17252761125564575, 0.4275251974348025, 1791402819355259559, 
-0.039337337017059326, 0.41791796684265137, 0.3904044730536019, 1791402819385040719, 
-0.8699143528938293, -0.2747494578361511, 0.3314659296896191, 1791402819407486255, 
0.25203216075897217, 0.6068217754364014, 0.4380713018306552, 1791402819433792756, 
-0.1433848738670349, -0.28644245862960815, 0.4140184005782529, 1791402819464679486, 
-0.07964277267456055, 0.46699148416519165, 0.3941112153159642, 1791402819487163315, 
-0.02614283561706543, 0.3611196279525757, 0.4343280009653988, 1791402819524520919, 
0.1378898024559021, -0.12624484300613403, 0.3798026087301425, 1791402819554587888, 
-0.2953983545303345, -0.12753921747207642, 0.3685736664288325, 1791402819584501481, 
-0.36399054527282715, 0.10549753904342651, 0.3443499940892612, 1791402819615708412, 
-1.680237889289856, 0.0005941987037658691, 0.2982156602465757, 1791402819647584598, 
-1.3951878547668457, -0.3543744683265686, 0.2606438614107598, 1791402819674453578, 
-0.3094087243080139, -0.13605117797851562, 0.20744237466247414, 1791402819704239013, 
-0.7675980925559998, 0.073883056640625, 0.15842506739167236, 1791402819734221685, 
-0.6651780605316162, -0.26433879137039185, 0.11065382635304326, 1791402819764156924, 
-0.7482974529266357, -0.07315254211425781, 0.06663870219747596, 1791402819794096020, 
-0.4733239412307739, -0.04687398672103882, 0.04445912324127052, 1791402819824046361, 
0.0642210841178894, 0.08940047025680542, -0.011015717936235958, 1791402819855369936, 
0.20108354091644287, -0.22698760032653809, -0.01408492427233857, 1791402819887465757, 
-0.03680062294006348, -0.028260529041290283, -0.0015714919187310465, 1791402819922825896, 
0.22603273391723633, -0.03871738910675049, 0.007664370432729087, 1791402819953870075, 
-0.08763331174850464, -0.06020742654800415, -0.0005509261757486593, 1791402819983729601, 
0.04656761884689331, -0.062217891216278076, 0.006378563852822555, 1791402820015239565, 
-0.03557240962982178, -0.014297664165496826, 0.005873953287733578, 1791402820046746300, 
0.07334935665130615, -0.07524621486663818, 0.0019402905952622652, 1791402820073779591, 
0.028437674045562744, -0.06439089775085449, -0.005011170978963629, 1791402820102492566, 
0.011953473091125488, -0.07728844881057739, 0.0019061735529450055, 1791402820125381595, 
0.6618272662162781, 0.02894127368927002, 0.011207666187908041, 1791402820163534589, 
1.3334637880325317, -0.13762247562408447, 0.1046199015460274, 1791402820193534089, 
0.8733557462692261, 0.5507937073707581, 0.17423148611363132, 1791402820223631649, 
1.0086575746536255, -0.06238514184951782, 0.2071144983126734, 1791402820255716175, 
1.1412508487701416, -0.5578910112380981, 0.2495655974711681, 1791402820286102070, 
0.21380609273910522, 0.2585393190383911, 0.32053656357474664, 1791402820313128894, 
1.0158612728118896, 0.5790677070617676, 0.3097484373232368, 1791402820343121580, 
1.066116452217102, -0.12234950065612793, 0.3948220819847328, 1791402820373206667, 
0.32937735319137573, 0.014535367488861084, 0.4201204670288705, 1791402820403154713, 
0.07272207736968994, 0.0745396614074707, 0.3921161327144309, 1791402820432953522, 
-0.10727834701538086, -0.04756444692611694, 0.3963230817273616, 1791402820463184882, 
-0.2778139114379883, 0.025982797145843506, 0.40137510853680197, 1791402820495125640, 
-0.4561240077018738, 0.5036875605583191, 0.471066800119781, 1791402820531823763, 
-0.07747364044189453, -0.25496596097946167, 0.39750156466296016, 1791402820562767669, 
0.07203185558319092, -0.27297407388687134, 0.3633783033537531, 1791402820592620162, 
-0.0016126632690429688, 0.15842950344085693, 0.3537789197100421, 1791402820623169926, 
-0.047135770320892334, -0.13970446586608887, 0.3792646424512104, 1791402820655599514, 
-0.5321270823478699, 0.06523406505584717, 0.4585652962469114, 1791402820682618993, 
0.06282943487167358, -0.09544110298156738, 0.3834568656770828, 1791402820703195804, 
-0.08664679527282715, -0.47153109312057495, 0.37415368040123753, 1791402820735690418, 
0.7454132437705994, 0.6302766799926758, 0.46172363460110716, 1791402820762649594, 
0.14643627405166626, -0.2829896807670593, 0.42693010937751835, 1791402820792861472, 
-0.4630463719367981, -0.342337429523468, 0.42272566551249735, 1791402820822386573, 
-0.2614590525627136, 0.07953512668609619, 0.41536106535093614, 1791402820852484314, 
-1.498825192451477, 0.2512909173965454, 0.3431885206040225, 1791402820882487261, 
-1.4766080379486084, -0.5139082074165344, 0.2522548709791371, 1791402820912749916, 
-0.8224316835403442, -0.2767801284790039, 0.22193642641430553, 1791402820943355037, 
-0.54892498254776, 0.033412039279937744, 0.1471984486592325, 1791402820974389756, 
-0.7891848683357239, -0.10836702585220337, 0.14300938777543337, 1791402821002197063, 
0.08418011665344238, -0.07264173030853271, 0.07623346871921946, 1791402821032515676, 
1.573581337928772, 0.11345243453979492, 0.06713020508969056, 1791402821062127523, 
1.5232354402542114, -0.1504395604133606, 0.19605405772562898, 1791402821092046778, 
0.7299031019210815, 0.23134887218475342, 0.28649598844165747, 1791402821121943776, 
0.6965529322624207, 0.20661211013793945, 0.2872483170975516, 1791402821151963839, 
1.0190175771713257, -0.2979104518890381, 0.3358600537699815, 1791402821183740396, 
0.10101151466369629, 0.05129408836364746, 0.384844159851915, 1791402821214016825, 
-0.04735517501831055, -0.043923139572143555, 0.44383201432328273, 1791402821241922491, 
0.11832636594772339, 0.24869197607040405, 0.4064639158110669, 1791402821271903615, 
0.023071706295013428, -0.2840462327003479, 0.4146120376561811, 1791402821301882481, 
-0.09701752662658691, -0.06574052572250366, 0.4078143364772876, 1791402821331990024, 
-0.29515141248703003, 0.03454089164733887, 0.4142613687820677, 1791402821360793612, 
0.9837750792503357, 0.05006110668182373, 0.378940321049643, 1791402821391887798, 
-0.41297948360443115, -0.09446096420288086, 0.3593109292464133, 1791402821423527526, 
-0.04354017972946167, 0.29739123582839966, 0.43027804946462733, 1791402821451127606, 
0.18109464645385742, 0.11570596694946289, 0.3719844088331423, 1791402821481085418, 
-0.09924644231796265, 0.08628582954406738, 0.34907727225463914, 1791402821502812550, 
-0.09832888841629028, -0.10946571826934814, 0.4167821635832044, 1791402821540919731, 
-0.15007680654525757, 0.20290422439575195, 0.41443131785053783, 1791402821570878440, 
-0.03720372915267944, -0.03794848918914795, 0.42280160166006103, 1791402821600909902, 
0.2671118974685669, 0.27579694986343384, 0.40824879056537056, 1791402821631890920, 
0.02751380205154419, -0.223594069480896, 0.3737190910863412, 1791402821663390072, 
-0.21801084280014038, -0.43951737880706787, 0.4197386433593448, 1791402821700682861, 
0.018983006477355957, 0.30329662561416626, 0.4155140854720107, 1791402821728840412, 
0.22692328691482544, 0.40669041872024536, 0.3675651663206675, 1791402821760502948, 
-0.14135843515396118, -0.6240677237510681, 0.3878800104462998, 1791402821791349257, 
0.1333562135696411, 0.19466662406921387, 0.3877115028722616, 1791402821823694514, 
-0.27272069454193115, 0.5712417364120483, 0.4600473414994316, 1791402821860426785, 
0.07061517238616943, -0.16517966985702515, 0.43232056823328907, 1791402821890337922, 
0.06063956022262573, -0.29745185375213623, 0.3980123764809332, 1791402821920217076, 
0.4309261441230774, 0.4248802661895752, 0.36320669788096854, 1791402821952051669, 
-0.15146207809448242, -0.2994680404663086, 0.41062674899135443, 1791402821983788789, 
0.1878949999809265, -0.3484979271888733, 0.4776830252584368, 1791402822020204125, 
-0.060860276222229004, -0.16461443901062012, 0.39652764230259185, 1791402822050063665, 
-0.3487950563430786, 0.39416396617889404, 0.3800649256041947, 1791402822079896060, 
0.9764549136161804, -0.2173749804496765, 0.38696127113001627, 1791402822111596132, 
-0.915234386920929, 0.09228843450546265, 0.390887058258394, 1791402822143227081, 
0.35676151514053345, -0.026401042938232422, 0.4383233029989898, 1791402822179759625, 
-0.5012803077697754, -0.11219078302383423, 0.3755863979484341, 1791402822209967641, 
0.20154011249542236, 0.1340976357460022, 0.3738211072526049, 1791402822239699270, 
-0.10676127672195435, 0.014167368412017822, 0.3633148646514994, 1791402822271046759, 
-0.01985830068588257, 0.12347185611724854, 0.3749637717299702, 1791402822302206493, 
-0.37622570991516113, -0.2895800471305847, 0.43614871644501363, 1791402822339529694, 
0.32478809356689453, 0.242867112159729, 0.4135023597365917, 1791402822369442976, 
-0.6723471283912659, 0.16075903177261353, 0.3948254027259229, 1791402822400072233, 
0.2828317880630493, -0.30388200283050537, 0.38095551394377813, 1791402822431704037, 
-0.2190793752670288, 0.03396189212799072, 0.3971491836021575, 1791402822461870968, 
0.43132472038269043, 0.18679314851760864, 0.43115870940618534, 1791402822499161010, 
-0.2014116644859314, -0.016226530075073242, 0.40344546566331246, 1791402822529151566, 
0.09365612268447876, -0.32627779245376587, 0.3959045412302959, 1791402822559591534, 
0.05060011148452759, 0.28399401903152466, 0.3971750942937332, 1791402822590800319, 
0.04401814937591553, -0.020045757293701172, 0.4353649486493553, 1791402822619098517, 
-0.32660454511642456, -0.24839478731155396, 0.39941820530063166, 1791402822649122382, 
0.28819090127944946, 0.39417052268981934, 0.4102209407353298, 1791402822678873593, 
-0.28082704544067383, -0.17979282140731812, 0.3949381721307745, 1791402822709103220, 
-0.08297359943389893, 0.05083805322647095, 0.3827411199985691, 1791402822738770215, 
0.12887978553771973, 0.36965346336364746, 0.4184820061003646, 1791402822768725523, 
-0.49716371297836304, -0.6044256091117859, 0.3994403635729804, 1791402822799914036, 
0.7796705365180969, -0.10264283418655396, 0.38953363003296493, 1791402822831554642, 
-0.7444208860397339, 0.4558537006378174, 0.450929892426162, 1791402822858573842, 
-0.02246147394180298, -0.4001617431640625, 0.4120887512809712, 1791402822888527727, 
0.36761826276779175, -0.13480794429779053, 0.4292646038498984, 1791402822918442231, 
0.03885728120803833, 0.47193843126296997, 0.4068203195339904, 1791402822948405111, 
-0.2445482611656189, -0.35733145475387573, 0.40165068793300335, 1791402822978500807, 
-0.34579581022262573, -0.18101537227630615, 0.3990767644153837, 1791402823008329240, 
-0.10654890537261963, 0.37282848358154297, 0.3823594788195584, 1791402823039901206, 
-0.5682535171508789, -0.2381855845451355, 0.3938020586987415, 1791402823071552270, 
0.07097673416137695, -0.12617069482803345, 0.46439160259559853, 1791402823098185541, 
0.0877271294593811, 0.12009185552597046, 0.39949643904403653, 1791402823128096998, 
0.4910171627998352, -0.029856383800506592, 0.39906941257552275, 1791402823158040910, 
-0.7026911377906799, -0.13527554273605347, 0.38810629530707297, 1791402823187967668, 
0.5024843215942383, 0.16662585735321045, 0.3818302556478052, 1791402823217916036, 
-0.5865253806114197, -0.262340247631073, 0.38086707604402764, 1791402823247843538, 
-0.4942355155944824, 0.25990408658981323, 0.3564266155499239, 1791402823279446788, 
-0.27160578966140747, 0.08547228574752808, 0.3875628167999932, 1791402823310639276, 
0.22723615169525146, -0.21683305501937866, 0.44431210013468114, 1791402823367635957, 
-0.4867556691169739, -0.1345752477645874, 0.372133346387513, 1791402823390307325, 
-0.1888379454612732, 0.0633774995803833, 0.441629769463884, 1791402823417640013, 
0.3393211364746094, 0.09973430633544922, 0.3833769208430277, 1791402823447511403, 
0.018518507480621338, -0.21565544605255127, 0.3964657127167473, 1791402823477450453, 
-0.01223611831665039, 0.14589232206344604, 0.4088675185858015, 1791402823507379541, 
-0.3562363386154175, 0.15316247940063477, 0.41491315645279, 1791402823537366654, 
-0.06450611352920532, -0.3626314401626587, 0.4200199247946027, 1791402823567316647, 
-0.5863768458366394, -0.03474551439285278, 0.28816039337823984, 1791402823599553279, 
-1.6266553401947021, -0.04862785339355469, 0.2530235674530357, 1791402823627355851, 
-0.16119229793548584, -0.34289008378982544, 0.20143260988624492, 1791402823657083312, 
-1.0777888298034668, -0.1060444712638855, 0.16544854968502024, 1791402823687090673, 
-0.38266563415527344, -0.06475543975830078, 0.11722489029849131, 1791402823716997030, 
-0.3506587743759155, -0.0982046127319336, 0.07585913161336434, 1791402823746958960, 
1.5774562358856201, 0.020422756671905518, 0.09182377984321155, 1791402823776905461, 
1.327884554862976, -0.10316836833953857, 0.21950613021567733, 1791402823808302103, 
0.7756180167198181, 0.35536646842956543, 0.2824329616765345, 1791402823839635841, 
1.0839227437973022, -0.11346369981765747, 0.35438329669474117, 1791402823866911799, 
0.9169872999191284, -0.21340793371200562, 0.3603357457947101, 1791402823895899232, 
0.216231107711792, 0.47969019412994385, 0.3689196631628623, 1791402823926836591, 
-0.4862726926803589, -0.09598040580749512, 0.40921593178796634, 1791402823957051404, 
-0.25041937828063965, -0.37271714210510254, 0.42368147797011463, 1791402823986654840, 
-0.23281824588775635, 0.39082860946655273, 0.4239060381305708, 1791402824017065558, 
-0.30074578523635864, 0.16531938314437866, 0.4169312599253964, 1791402824047583919, 
0.1753104329109192, -0.22433596849441528, 0.38094472858916323, 1791402824079480358, 
-0.6932511329650879, -0.2664838433265686, 0.4196233003535268, 1791402824107160105, 
0.08106333017349243, 0.3319927453994751, 0.3808701594526671, 1791402824136994746, 
-0.06927788257598877, -0.12721896171569824, 0.39812306815570936, 1791402824167055133, 
0.6144596338272095, -0.09234124422073364, 0.40979962931158687, 1791402824196368683, 
0.17326945066452026, 0.25977349281311035, 0.41990087478249266, 1791402824226115501, 
-0.2067069411277771, 0.004728972911834717, 0.4189486346401272, 1791402824256313072, 
0.2585887908935547, -0.29910457134246826, 0.3888134638403173, 1791402824287414528, 
-0.7014687061309814, 0.11918944120407104, 0.39940233404155034, 1791402824318979799, 
0.008011162281036377, 0.0754166841506958, 0.44027990516309357, 1791402824345954448, 
0.09687793254852295, -0.1100969910621643, 0.3679531883950883, 1791402824376012623, 
-0.004394114017486572, -0.1073102355003357, 0.3928363639840135, 1791402824405757486, 
-0.12283778190612793, 0.12450230121612549, 0.4278024476854271, 1791402824434956180, 
0.4463019371032715, 0.034223079681396484, 0.41292279871804405, 1791402824466051608, 
-0.13648343086242676, 0.13547033071517944, 0.3988773370173103, 1791402824496103455, 
0.599837064743042, -0.3991190791130066, 0.3845535226725124, 1791402824527384062, 
-0.25200217962265015, 0.4874492883682251, 0.4287601588253155, 1791402824554883738, 
-0.09643018245697021, 0.1351223587989807, 0.39431027638344424, 1791402824585606910, 
0.4253736734390259, -0.4928203225135803, 0.4071914358297318, 1791402824615406664, 
-0.6362113356590271, 0.5313960313796997, 0.40962545765627484, 1791402824645309421, 
0.2993037700653076, 0.05256664752960205, 0.4213403408569689, 1791402824675294951, 
-0.2192097306251526, -0.5324419140815735, 0.41508589716480787, 1791402824705217493, 
0.00511932373046875, 0.4147244095802307, 0.40177857484733265, 1791402824735686142, 
-0.13386905193328857, -0.021281898021697998, 0.3630678704663657, 1791402824767451690, 
0.10578429698944092, -0.40330320596694946, 0.4188150284874177, 1791402824795455357, 
-0.02819591760635376, 0.3699868321418762, 0.3969806032032565, 1791402824825013184, 
-0.03741997480392456, 0.08322155475616455, 0.38911186119515834, 1791402824854960752, 
0.15616881847381592, -0.24855142831802368, 0.39265653732533895, 1791402824884946297, 
0.01321035623550415, 0.11559700965881348, 0.40264374954705445, 1791402824915206766, 
0.10923439264297485, 0.1928575038909912, 0.42178861593605865, 1791402824943999577, 
-0.4040413498878479, -0.22753655910491943, 0.38011648892465877, 1791402824975426320, 
0.22020137310028076, -0.0831524133682251, 0.3519095243109133, 1791402825008597682, 
-0.1568729281425476, 0.0246313214302063, 0.47484572327728564, 1791402825033818858, 
-0.33918648958206177, 0.10309255123138428, 0.3911309454699231, 1791402825064762649, 
0.028269052505493164, 0.09615325927734375, 0.35740173472251047, 1791402825087447136, 
0.1454484462738037, 0.10762429237365723, 0.4418622920590473, 1791402825124498297, 
-0.5716660022735596, -0.01653444766998291, 0.4102719753058332, 1791402825154397242, 
0.2761572599411011, -0.11604243516921997, 0.41486470940014203, 1791402825184378462, 
-0.4872434139251709, -0.03538459539413452, 0.3824443117944689, 1791402825215688383, 
0.19001048803329468, 0.2298380732536316, 0.3669754309203062, 1791402825247555264, 
-0.13342046737670898, -0.1454184651374817, 0.42238173472869306, 1791402825274328687, 
-0.29215556383132935, 0.028239011764526367, 0.37818297098310705, 1791402825304173620, 
0.3551442623138428, -0.036646485328674316, 0.4011084663650275, 1791402825334071880, 
-0.8845343589782715, 0.07518172264099121, 0.3919603828613327, 1791402825364073323, 
0.10212481021881104, -0.16409480571746826, 0.3869853286033048, 1791402825394180280, 
-0.1616867184638977, 0.30103975534439087, 0.4225838133239739, 1791402825423932841, 
0.3860620856285095, 0.14386272430419922, 0.39839463193039953, 1791402825456071367, 
-0.14143753051757812, -0.5545182824134827, 0.4159919173383963, 1791402825486542530, 
-0.2150617241859436, -0.35107553005218506, 0.43113321376500746, 1791402825523734260, 
-0.02522110939025879, 0.7497401237487793, 0.37229246386273374, 1791402825553727474, 
-0.2983214855194092, -0.09264695644378662, 0.385521058467222, 1791402825583857399, 
0.19070011377334595, -0.5171273350715637, 0.3944349125054056, 1791402825615403716, 
-0.07243990898132324, 0.7005822658538818, 0.4202728276317991, 1791402825646088861, 
-0.0009245872497558594, -0.2728390693664551, 0.46723753643526705, 1791402825673477884, 
0.3100898265838623, -0.4341249465942383, 0.42132407330413585, 1791402825703415117, 
0.31266188621520996, 0.6968277096748352, 0.38649545782955336, 1791402825733372991, 
-1.0152283906936646, -0.40842634439468384, 0.3952736814153509, 1791402825763327429, 
0.46642565727233887, -0.2013988494873047, 0.40154847117716447, 1791402825793275129, 
-0.18520867824554443, 0.6401230692863464, 0.3726429725671449, 1791402825824192600, 
-0.27613312005996704, -0.24561458826065063, 0.35672957185619725, 1791402825855504633, 
0.21428227424621582, -0.08360600471496582, 0.43751184395081755, 1791402825883192557, 
0.13035380840301514, 0.4288513660430908, 0.42979620850234046, 1791402825913084726, 
-0.33028680086135864, -0.1147797703742981, 0.411456184274849, 1791402825943016832, 
-0.5101531744003296, -0.39359885454177856, 0.3972003701752832, 1791402825973164956, 
-1.3429505825042725, 0.03373521566390991, 0.3840767243654784, 1791402826002955937, 
0.6996129751205444, 0.17742908000946045, 0.3830085590435453, 1791402826033001913, 
0.310466468334198, -0.3523028492927551, 0.4271912941419455, 1791402826062821647, 
-0.8780014514923096, 0.3507848381996155, 0.3705245369518328, 1791402826096217613, 
-0.1398301124572754, 0.09468072652816772, 0.4556069014285493, 1791402826132686005, 
-0.324642539024353, -0.019003868103027344, 0.41452219212681346, 1791402826162602167, 
0.9074931740760803, 0.18845045566558838, 0.39698498232793183, 1791402826192568900, 
-0.6474719047546387, -0.2400018572807312, 0.37053400874221043, 1791402826223874452, 
0.2575957179069519, 0.08694177865982056, 0.3822084688529045, 1791402826255739942, 
0.12959331274032593, 0.32063961029052734, 0.45276278081172777, 1791402826282536509, 
-0.05314517021179199, -0.13778585195541382, 0.3598704560601175, 1791402826303916493, 
-0.13698893785476685, 0.33156120777130127, 0.36079145927300593, 1791402826335613532, 
-0.4514999985694885, -0.173059344291687, 0.444526238612332, 1791402826362562160, 
-0.21645337343215942, -0.2170465588569641, 0.4049313291214297, 1791402826392482287, 
-0.5950564742088318, 0.4010300636291504, 0.41233206159715424, 1791402826422416098, 
-1.2294580936431885, -0.22698652744293213, 0.3313242119210261, 1791402826452415002, 
-1.1804258823394775, -0.36259281635284424, 0.2160549371083498, 1791402826482517966, 
-1.0020047426223755, -0.13450407981872559, 0.19927210637314963, 1791402826512370792, 
0.40411460399627686, -0.14820623397827148, 0.1640894640435309, 1791402826544145421, 
-1.6220779418945312, -0.13576006889343262, 0.10795396240108228, 1791402826574296424, 
0.33659541606903076, -0.07052505016326904, 0.09934923825743795, 1791402826602271586, 
1.7645081281661987, 0.5634244084358215, 0.15230007202555795, 1791402826632168913, 
0.6007001399993896, -0.17100077867507935, 0.2707216235731332, 1791402826662124532, 
0.9368276596069336, -0.06563258171081543, 0.29923978350748814, 1791402826692233048, 
0.9605472683906555, -0.0462414026260376, 0.33391749743617677, 1791402826722351365, 
0.7291016578674316, 0.5186425447463989, 0.40410575710592983, 1791402826752166639, 
-0.25439703464508057, 0.10087651014328003, 0.42674148767015746, 1791402826783488540, 
-0.6648091077804565, -0.005689561367034912, 0.4530874103056764, 1791402826822274942, 
-0.20413219928741455, -0.2575753927230835, 0.43446345041577, 1791402826852160648, 
-0.4379153251647949, 0.12549132108688354, 0.3950300443879209, 1791402826881525986, 
-0.05665302276611328, 0.15362322330474854, 0.35182420529269637, 1791402826911885479, 
-0.3203139901161194, -0.11189383268356323, 0.3304741050436382, 1791402826943457838, 
0.40596604347229004, 0.15489065647125244, 0.41788595620098434, 1791402826981179640, 
-0.642180860042572, 0.024687647819519043, 0.4401589097428416, 1791402827011182029, 
0.4034736156463623, -0.05479931831359863, 0.4150008831326553, 1791402827041090656, 
-0.4381304979324341, -0.019364893436431885, 0.40119045359746736, 1791402827071633900, 
0.6010689735412598, 0.07808089256286621, 0.37177787010475344, 1791402827103845849, 
0.007025480270385742, 0.13783687353134155, 0.4248920300166691, 1791402827141161657, 
-0.10237663984298706, -0.13842004537582397, 0.4087893842421967, 1791402827170003901, 
-0.11314308643341064, 0.4358445405960083, 0.38911645938524314, 1791402827199844507, 
0.24359190464019775, 0.08303219079971313, 0.363044952745143, 1791402827231657438, 
-0.24939459562301636, -0.25751906633377075, 0.3688933528216446, 1791402827263527689, 
0.08701372146606445, -0.050209760665893555, 0.47840301615777936, 1791402827291158561, 
-0.4657742381095886, 0.584541916847229, 0.44392929730606734, 1791402827319943500, 
-0.2637842893600464, -0.3784295320510864, 0.3895691061378754, 1791402827350573349, 
-1.3772227764129639, -0.45049911737442017, 0.3638045674372157, 1791402827380416108, 
-1.1225396394729614, 0.19463270902633667, 0.24236996545504683, 1791402827410512975, 
-0.8164575099945068, -0.1980069875717163, 0.22300533581576454, 1791402827440333108, 
-1.232125997543335, -0.05716836452484131, 0.1758321580964532, 1791402827472033005, 
-0.44565463066101074, -0.09574562311172485, 0.12463934988667213, 1791402827503253523, 
-0.546829879283905, -0.009350299835205078, 0.075801767324417, 1791402827540199681, 
-0.5364283323287964, -0.1319878101348877, 0.016679184234413023, 1791402827570063905, 
0.005280911922454834, -0.06347519159317017, -0.02128184837803657, 1791402827600006074, 
0.21920007467269897, 0.017547905445098877, -0.034507452699605805, 1791402827632028504, 
-0.06227719783782959, 0.01726323366165161, -0.03209806445606134, 1791402827660828022, 
0.17052823305130005, -0.01549464464187622, 0.0008990329135280732, 1791402827698820059, 
-0.1424252986907959, -0.05158185958862305, 0.008037666142802082, 1791402827729773004, 
-0.024901390075683594, -0.02453833818435669, 0.0025879803412621003, 1791402827760243335, 
-0.1317424774169922, -0.022498369216918945, -0.0017015344933769157, 1791402827791734587, 
-0.08491295576095581, -0.0044997334480285645, -0.002640258793041458, 1791402827822166105, 
-0.08990514278411865, -0.06542974710464478, 0.0021611387486555607, 1791402827848808431, 
-0.12400192022323608, -0.02635401487350464, 0.0020489156414569758, 1791402827879499073, 
-0.018127739429473877, -0.051177978515625, -0.0007279071010789937, 1791402827909468554, 
-0.024258553981781006, 0.015255272388458252, -0.0012615219915570522, 1791402827939423951, 
-0.06906712055206299, -0.030980587005615234, 0.0006882309045925762, 1791402827969562467, 
-0.05062323808670044, -0.022077202796936035, 0.0006679677565370204, 1791402828000080371, 
-0.07756948471069336, -0.04004257917404175, 0.0008010512108354123, 1791402828032447863, 
-0.08511066436767578, -0.036635756492614746, -0.0012151129355020007, 1791402828059279936, 
-0.08331114053726196, -0.03325676918029785, -0.0009184006873799543, 1791402828089134204, 
-0.1120404601097107, -0.03312885761260986, -0.0005519666846337248, 1791402828119262372, 
-0.07255864143371582, -0.017027854919433594, 0.0003319583920479812, 1791402828149068386, 
-0.04387712478637695, -0.035043299198150635, 0.002103756220091892, 1791402828178959142, 
-0.05126047134399414, -0.03141367435455322, 0.00015674344204379717, 1791402828209000623, 
-0.05883169174194336, -0.056697309017181396, 0.00032425477733765643, 1791402828239698067, 
1.8088483810424805, 0.3023911118507385, 0.022097587834484955, 1791402828272361632, 
0.33748066425323486, -0.28869086503982544, 0.17594044276709736, 1791402828298853659, 
1.2213212251663208, 0.1951960325241089, 0.19299721133151873, 1791402828328663882, 
0.9456217885017395, 0.22968673706054688, 0.20229309152399222, 1791402828358677502, 
0.05753171443939209, -0.11555492877960205, 0.2365871690702758, 1791402828388614244, 
1.2556071281433105, -0.09671139717102051, 0.29096862024225273, 1791402828418532361, 
0.49179530143737793, 0.45256781578063965, 0.3276848262773045, 1791402828448519574, 
0.5737468600273132, 0.04536396265029907, 0.34524800813992246, 1791402828480113393, 
0.030478477478027344, -0.0004684329032897949, 0.39704012047260234, 1791402828511369992, 
-0.33312708139419556, 0.15567469596862793, 0.4514445828022489, 1791402828538458436, 
-0.07360666990280151, -0.314217746257782, 0.3990163983235108, 1791402828568299042, 
-0.111733078956604, 0.5033524632453918, 0.3390807295485263, 1791402828591507733, 
-0.6529654264450073, 0.21642887592315674, 0.45445327927740525, 1791402828628358474, 
0.022134721279144287, -0.23187929391860962, 0.4593896436965168, 1791402828658143705, 
-0.37691134214401245, 0.3090817332267761, 0.450174188975024, 1791402828688083909, 
0.6611892580986023, 0.12241911888122559, 0.37182525042938525, 1791402828720180145, 
-0.22330546379089355, -0.33957362174987793, 0.3532660281461502, 1791402828750397211, 
0.3881106972694397, 0.17620724439620972, 0.4047893896734079, 1791402828777964785, 
-0.019105970859527588, 0.5160478949546814, 0.38786272960253343, 1791402828808089439, 
-0.7437145113945007, -0.3636521100997925, 0.41003702504492645, 1791402828837766349, 
0.5237229466438293, -0.00435107946395874, 0.410080785943221, 1791402828867939328, 
-0.4466429352760315, 0.48765867948532104, 0.3898427499232639, 1791402828897761185, 
-0.0035550594329833984, -0.21844446659088135, 0.38749514909504273, 1791402828928440695, 
-0.01207876205444336, 0.11750316619873047, 0.3751134208790665, 1791402828959852220, 
-0.09906351566314697, 0.025968313217163086, 0.42731315785718, 1791402828987565591, 
-0.12363553047180176, 0.2530653476715088, 0.38565891907046995, 1791402829017468618, 
-0.02130258083343506, 0.21521884202957153, 0.32117163952239125, 1791402829040666206, 
-0.036968111991882324, -0.07910370826721191, 0.4381782718222885, 1791402829067757298, 
-0.6975370049476624, -0.04663330316543579, 0.41600234077205434, 1791402829097336391, 
0.788659393787384, 0.12860465049743652, 0.443631900737983, 1791402829127476951, 
-0.9407094120979309, 0.17955774068832397, 0.41960349340751113, 1791402829157197260, 
0.03222370147705078, 0.12109482288360596, 0.38260350603189425, 1791402829187315866, 
0.03569436073303223, -0.16273826360702515, 0.3905521721689196, 1791402829217102916, 
-0.27937740087509155, 0.046014487743377686, 0.3852946213356372, 1791402829247686497, 
0.11688828468322754, 0.36718761920928955, 0.3877723147481531, 1791402829278745839, 
-0.308817982673645, -0.15728753805160522, 0.41730802843831216, 1791402829306993318, 
0.6309159994125366, -0.2909999489784241, 0.3781153071845129, 1791402829336867816, 
0.014558792114257812, 0.20313942432403564, 0.34452417461486257, 1791402829360204895, 
-0.27949589490890503, -0.5449509620666504, 0.42965716919181507, 1791402829386857734, 
0.013501226902008057, 0.4520013928413391, 0.4016283469754407, 1791402829416876418, 
-0.25066882371902466, -0.5905516147613525, 0.34879274621160233, 1791402829440530944, 
0.3735648989677429, 0.3664703369140625, 0.47449911195205013, 1791402829466643374, 
-0.03744232654571533, 0.5064858198165894, 0.4121843337629547, 1791402829496628941, 
0.0874362587928772, -0.39222127199172974, 0.4034042903755824, 1791402829526762569, 
-1.0519928932189941, 0.26853644847869873, 0.40972079561627617, 1791402829556448648, 
0.2480962872505188, 0.4253885746002197, 0.3993247879779358, 1791402829586536728, 
-0.5060670971870422, -0.39492201805114746, 0.41654890599826044, 1791402829616453394, 
0.4102877378463745, 0.2963857054710388, 0.42769362893398605, 1791402829648140404, 
0.08472132682800293, 0.2907722592353821, 0.41739693338925604, 1791402829679345801, 
0.18652623891830444, -0.37345486879348755, 0.4434126779537862, 1791402829706344144, 
-0.38457268476486206, 0.013110041618347168, 0.3884111171870202, 1791402829736153351, 
0.02973121404647827, 0.27892905473709106, 0.3655927963350985, 1791402829766326005, 
0.2065390944480896, -0.039007604122161865, 0.39270702402122765, 1791402829786202229, 
-0.5894171595573425, -0.1264110803604126, 0.3873023295277406, 1791402829826046922, 
0.41789543628692627, 0.2320035696029663, 0.40807788318199734, 1791402829856002958, 
-0.7351489067077637, 0.018901050090789795, 0.4005323495360594, 1791402829886801417, 
0.38211655616760254, 0.18236255645751953, 0.37758117189254115, 1791402829918391868, 
-0.6167075634002686, -0.13797980546951294, 0.40144340503553755, 1791402829956148034, 
0.3958691954612732, 0.08824419975280762, 0.4033914806186708, 1791402829984887157, 
-0.20934456586837769, 0.12661904096603394, 0.38899999281738057, 1791402830016003296, 
-0.4589698910713196, 0.13537395000457764, 0.3621702072848462, 1791402830048632223, 
-0.44240522384643555, -0.031263113021850586, 0.4351425600061833, 1791402830085558811, 
-0.14485442638397217, -0.14763766527175903, 0.4237595360236041, 1791402830115697417, 
